Shimmer	Shimmer	Shimmer	Shimmer	Shimmer	Shimmer	Shimmer	Shimmer	Shimmer	Shimmer	Shimmer	Shimmer	Shimmer	Shimmer	Shimmer	Shimmer	Shimmer	Shimmer	Shimmer	Shimmer	Shimmer	Shimmer	Shimmer	Shimmer	Shimmer	Shimmer	Shimmer	Shimmer
Timestamp	Timestamp	Low Noise Accelerometer X	Low Noise Accelerometer X	Low Noise Accelerometer Y	Low Noise Accelerometer Y	Low Noise Accelerometer Z	Low Noise Accelerometer Z	Gyroscope X	Gyroscope X	Gyroscope Y	Gyroscope Y	Gyroscope Z	Gyroscope Z	Magnetometer X	Magnetometer X	Magnetometer Y	Magnetometer Y	Magnetometer Z	Magnetometer Z	Axis Angle A	Axis Angle X	Axis Angle Y	Axis Angle Z	Quaternion 0	Quaternion 1	Quaternion 2	Quaternion 3
RAW	CAL	RAW	CAL	RAW	CAL	RAW	CAL	RAW	CAL	RAW	CAL	RAW	CAL	RAW	CAL	RAW	CAL	RAW	CAL	CAL	CAL	CAL	CAL	CAL	CAL	CAL	CAL
no units	mSecs	no units	m/(sec^2)	no units	m/(sec^2)	no units	m/(sec^2)	no units	deg/sec	no units	deg/sec	no units	deg/sec	no units	local	no units	local	no units	local	local	local	local	local	local	local	local	local
28008	46756.7138671875	1217	0.737442872871209	1944	9.67937255922309	1936	1.41431231825924	-707	0.118703841906676	85	6.95140584281055	156	-1.1505675857175	137	0.224532224532225	-493	-0.671548117154812	-20	-0.599526066350711	1.66003293875769	0.751973610589055	-0.463568002762804	-0.46865807983237	0.674863606708428	0.554913275449915	-0.342086524293552	-0.345842708419153
31220	46854.736328125	1215	0.437743776545896	1969	9.70646593572852	1926	1.53779123693334	-612	2.13324591220117	-46	5.52690996908048	201	-1.879774532451	139	0.22037422037422	-484	-0.652719665271966	-20	-0.599526066350711	1.66399011622976	0.754186897591079	-0.448830925860028	-0.479325488049168	0.673402201988745	0.557552512735523	-0.331810074274658	-0.354353981928889
34432	46952.7587890625	1219	0.606023373638525	1955	9.65659036867325	1925	1.54815663373349	-314	0.223267457779158	86	0.965189876354426	281	-3.06631470616722	141	0.216216216216216	-499	-0.684100418410042	-22	-0.59478672985782	1.65745893981193	0.747877400687085	-0.458271820696961	-0.48027734893145	0.675812779125432	0.551240482997275	-0.337779934990615	-0.353999622871871
37644	47050.78125	1215	0.725999378437566	1945	9.7035833797096	1933	1.45057133151683	-385	-0.753176537365793	149	2.03117374518475	221	-2.12823101916083	143	0.212058212058212	-494	-0.673640167364017	-19	-0.601895734597156	1.66052779718892	0.746213219149631	-0.464774159742905	-0.476603411655457	0.674680997521879	0.550787024423863	-0.343054196715543	-0.351785479269743
40856	47148.8037109375	1215	0.6178282415806	1954	9.70466509107817	1931	1.47574942842757	-1022	-6.08589937024229	488	11.6933917989551	97	-0.123229961156085	136	0.226611226611227	-469	-0.621338912133891	-21	-0.597156398104265	1.65182498750751	0.751339682165881	-0.455656063878168	-0.477353363300112	0.67788641295526	0.552359881165609	-0.334983144468825	-0.350934275514867
44068	47246.826171875	1219	0.569404191450867	1958	9.65695656049513	1929	1.50033005447103	-881	-4.7999794361502	406	9.55627926657625	128	-0.62353501017473	140	0.218295218295218	-481	-0.646443514644351	-22	-0.59478672985782	1.64574870913774	0.753745216077574	-0.452248243240342	-0.47680150558298	0.680116819600665	0.552573446215456	-0.331544884109066	-0.349544972864663
47280	47344.8486328125	1218	0.643003929334615	1952	9.66826875588738	1919	1.62007598480304	-613	-4.79392887784163	411	5.4635754869875	149	-0.945150203827123	137	0.224532224532225	-497	-0.679916317991632	-20	-0.599526066350711	1.63579806359341	0.752208347177608	-0.45353855012497	-0.478001449774863	0.683755814613119	0.548894624029698	-0.330952019992727	-0.348802864318487
50492	47442.87109375	1225	0.557599323508792	1959	9.58478545254805	1921	1.59683364531913	-450	-5.30498315321201	448	2.9689878607218	161	-1.11864007974041	133	0.232848232848233	-483	-0.650627615062761	-20	-0.599526066350711	1.63865855869443	0.753068728470775	-0.449344274029041	-0.480600888052367	0.682711448404916	0.550258347417688	-0.32833050729767	-0.351169342755987
53704	47540.8935546875	1228	0.413411293644885	1971	9.55008275453343	1915	1.67056468224427	-6	-2.12273585009946	247	-3.77830755566986	201	-1.79465489720499	136	0.226611226611227	-480	-0.644351464435146	-21	-0.597156398104265	1.64774868261555	0.748469196431112	-0.447550971347109	-0.489379188401003	0.679383385642901	0.549214341723814	-0.328405515268095	-0.359098370504188
56916	47638.916015625	1224	0.534230503296931	1961	9.59706733352125	1916	1.65730829737667	368	-6.04074883991408	513	-9.51501403825607	327	-3.64525973232603	142	0.214137214137214	-493	-0.671548117154812	-23	-0.592417061611374	1.65247032141504	0.737243041743238	-0.457318169285481	-0.497325637226308	0.677649163685467	0.542157731265724	-0.336305081347598	-0.365725987106434
60128	47736.9384765625	1225	0.713230847806342	1946	9.58322913730507	1929	1.49889178790748	-241	-11.5166560725123	862	-0.273927726722177	257	-2.46409431271999	141	0.216216216216216	-493	-0.671548117154812	-18	-0.604265402843602	1.65132785800888	0.734218926660374	-0.462725567387942	-0.496797360116975	0.678069128527354	0.539649541020219	-0.340102428569961	-0.365145132646784
63340	47834.9609375	1222	0.712508100789481	1946	9.61938094308849	1938	1.39046528043789	-1117	1.19098449283323	6	13.2221519502123	114	-0.529024833763584	133	0.232848232848233	-470	-0.623430962343096	-22	-0.59478672985782	1.66248686515105	0.748570398644234	-0.458060850718292	-0.479398180339524	0.673957670681443	0.553021325657934	-0.338401597705473	-0.354164975918805
1016	47932.9833984375	1223	0.460148934068608	1967	9.60985634198462	1932	1.4652780287316	-1475	3.61341226040876	-161	18.692637434383	-54	1.99448007077468	138	0.222453222453222	-484	-0.652719665271966	-20	-0.599526066350711	1.65958538159812	0.760460873734217	-0.447542553573279	-0.47053684474279	0.675028725530962	0.561061528646884	-0.330193068328869	-0.347158059690445
4228	48031.005859375	1215	0.570970143320733	1958	9.70513367206077	1920	1.60874812989209	-994	4.77578591429813	-228	11.3623113196598	6	1.0526777905934	142	0.214137214137214	-498	-0.682008368200837	-24	-0.590047393364929	1.64081131536253	0.759070843117287	-0.452694359209734	-0.46784535080398	0.681924556241266	0.555201507287496	-0.331110848022595	-0.342192624442146
7440	48129.0283203125	1219	0.496406742747836	1964	9.65768653498216	1935	1.42877087233156	-731	-7.45206756234975	584	7.23042481245396	87	0.0571858705366459	131	0.237006237006237	-484	-0.652719665271966	-21	-0.597156398104265	1.6403140844337	0.762104456822101	-0.444735649679176	-0.470539051297905	0.682106378113588	0.557291138540098	-0.325214259463298	-0.344083073229683
10652	48227.05078125	1220	0.653965592423684	1951	9.64406275371432	1926	1.53562901877456	-465	-7.46219297392819	590	3.18848435438386	241	-2.30023562613074	134	0.230769230769231	-484	-0.652719665271966	-20	-0.599526066350711	1.63000834627616	0.756512232179327	-0.451493505085467	-0.473120341381229	0.685865356551359	0.550535482312885	-0.328564673524594	-0.344303137814444
13864	48325.0732421875	1221	0.630355856539536	1953	9.63225065830207	1921	1.59610607998882	-648	0.485344458207446	62	6.05418400290849	161	-1.2344466319688	138	0.222453222453222	-485	-0.654811715481171	-23	-0.592417061611374	1.63496292170977	0.759264594665909	-0.450182466868578	-0.469950020545732	0.684060461057005	0.553826813767392	-0.328374486300756	-0.342793440306916
17076	48423.095703125	1212	0.667697785744056	1950	9.74031097394979	1920	1.60778085346786	-831	0.111077774245058	83	8.84877957155546	171	-1.38005376614014	133	0.232848232848233	-494	-0.673640167364017	-20	-0.599526066350711	1.63251036058308	0.762600250617147	-0.448396765162049	-0.466241566948803	0.684954426582513	0.555619800312023	-0.326695566803545	-0.339697038016464
20288	48521.1181640625	1217	0.654206508095971	1951	9.68020492287085	1927	1.52357841684675	-1045	-3.89511756859107	343	12.0694017770367	111	-0.381375052179924	132	0.234927234927235	-486	-0.656903765690377	-23	-0.592417061611374	1.62544200674143	0.76723256541368	-0.444951678090311	-0.461922282135598	0.687525095067693	0.557134074124182	-0.323106385700904	-0.335429770028316
23500	48619.140625	1221	0.509777562559777	1963	9.63345644124187	1922	1.58526367015753	-888	6.64206151694716	-349	9.77078709988262	68	0.066178977866813	135	0.228690228690229	-482	-0.648535564853556	-26	-0.585308056872038	1.63307781132716	0.772672841983662	-0.439734129751976	-0.457832474156393	0.684747680706439	0.563108686262482	-0.320469537241283	-0.333659252716377
26712	48717.1630859375	1220	0.49652720058398	1964	9.64563713763271	1933	1.45286605329537	-473	3.47936874932527	-132	3.41179297642886	172	-1.4627288324268	133	0.232848232848233	-489	-0.663179916317992	-26	-0.585308056872038	1.64149668002066	0.772082662908091	-0.441180477302202	-0.457436496231065	0.681673870634625	0.56489903509441	-0.32279241317477	-0.3346862295348
29924	48815.185546875	1224	0.604698337440946	1955	9.59636265517981	1931	1.47588072746896	-397	1.53201976119601	-2	2.23466991472948	200	-1.85244076264584	137	0.224532224532225	-496	-0.677824267782427	-23	-0.592417061611374	1.63689185674976	0.765836662146367	-0.449899870061424	-0.459439129625704	0.683356635988823	0.559125650121976	-0.328465023642091	-0.335429491353276
33136	48913.2080078125	1208	0.67781624398012	1949	9.78840256045176	1940	1.36671581346381	-340	5.14166165431804	-239	1.40691121981669	243	-2.58293121226579	133	0.232848232848233	-496	-0.677824267782427	-26	-0.585308056872038	1.6545976220785	0.767950144268679	-0.451429072302887	-0.454383503879125	0.676866587633111	0.565292489452368	-0.332299519699016	-0.334474293664634
36348	49011.23046875	1220	0.567597323908712	1958	9.64492643639947	1943	1.33167342435127	-505	1.78684036211259	-21	3.8963081527089	255	-2.69954574784237	134	0.230769230769231	-473	-0.629707112970711	-26	-0.585308056872038	1.6573433051938	0.765591756563517	-0.450901874902058	-0.458864643976629	0.675855393592121	0.564267346769448	-0.33233012558338	-0.33819895912309
39560	49109.2529296875	1213	0.60385513258794	1955	9.72890120771027	1949	1.25902168963798	-674	6.38874461396242	-328	6.51789361964709	201	-1.96488450648623	138	0.222453222453222	-501	-0.688284518828452	-30	-0.575829383886256	1.66789302421411	0.769385388916436	-0.450975574538691	-0.452401541212451	0.671958256966782	0.569798373439307	-0.333987560115874	-0.335043615381533
42772	49207.275390625	1212	0.507850237181479	1963	9.74190944943541	1947	1.28407812413421	-669	5.73828720379166	-285	6.44525169640875	269	-2.99290413966677	136	0.226611226611227	-499	-0.684100418410042	-29	-0.578199052132702	1.66996100013143	0.769862270620841	-0.447198341280007	-0.455330350219413	0.671192137765499	0.57068613971699	-0.331500717481737	-0.337528840909621
45984	49305.2978515625	1216	0.543144383171559	1960	9.69336373689118	1950	1.24758060436106	-670	-0.0520085751835881	97	6.3906046233395	198	-1.79014170234813	131	0.237006237006237	-482	-0.648535564853556	-34	-0.566350710900474	1.6642020911202	0.768883157491197	-0.447669104840034	-0.456520604899811	0.673323844198355	0.568471983316495	-0.3309831167694	-0.337527452856467
49196	49403.3203125	1212	0.651676893536955	1951	9.74047118287186	1953	1.21035070094415	-552	-3.51734281662373	328	4.55119177115024	194	-1.6595980303791	133	0.232848232848233	-482	-0.648535564853556	-35	-0.563981042654028	1.65927464197596	0.766907424713352	-0.452181074746463	-0.455395737310604	0.675143347900763	0.565737299445422	-0.333567901214425	-0.335939314580706
52408	49501.3427734375	1217	0.517727779745256	1962	9.68156971015435	1960	1.12735284268448	-699	-8.92815340713012	682	6.74727011393471	224	-2.01065922212072	130	0.239085239085239	-496	-0.677824267782427	-34	-0.566350710900474	1.65916765816742	0.77016675437137	-0.443627672008552	-0.458298657088739	0.675182807193635	0.568113847969824	-0.327242149028346	-0.338064207680068
55620	49599.365234375	1217	0.542903467499271	1960	9.68131795327681	1951	1.23553482074669	-871	-0.00733553269375577	90	9.46319870867202	199	-1.80634440998299	134	0.230769230769231	-499	-0.684100418410042	-32	-0.571090047393365	1.65781438731138	0.773092399890865	-0.443274585985982	-0.453691285622657	0.675681773017824	0.569918631887623	-0.326779108980176	-0.334458231432494
58832	49697.3876953125	1219	0.507007032328474	1963	9.65758053208635	1947	1.28408655618274	-809	0.481485858776981	59	8.52121949292777	203	-1.87735782495264	128	0.243243243243243	-485	-0.654811715481171	-31	-0.57345971563981	1.65507430051195	0.77455933094807	-0.440855380635213	-0.453546443273741	0.676691125550513	0.57028248823346	-0.324587276112247	-0.333931286946081
62044	49795.41015625	1217	0.48255409159132	1965	9.68192144703589	1952	1.22409012173469	-790	-0.982925480613088	156	8.21237469772536	180	-1.4959569221085	131	0.237006237006237	-483	-0.650627615062761	-34	-0.566350710900474	1.65491745389585	0.776101251000776	-0.439652718372918	-0.45207558596139	0.676748863964651	0.571376564936342	-0.323678462913071	-0.332824351288082
65256	49893.4326171875	1205	0.567476866072569	1958	9.82565053254409	1959	1.13890354459229	-638	4.62631209601533	-211	5.94940429565557	199	-1.89901736255717	132	0.234927234927235	-500	-0.686192468619247	-30	-0.575829383886256	1.66512894074162	0.778177563632934	-0.443773298625297	-0.444415277511399	0.672981139846801	0.575586537817193	-0.328241199012435	-0.328716044885243
2932	49991.455078125	1214	0.5065252009839	1963	9.71782631425522	1956	1.17565763955643	-704	-0.60813753433518	133	6.90778635896641	219	-2.10051330565133	126	0.247401247401247	-488	-0.661087866108787	-34	-0.566350710900474	1.6610780696692	0.778000100365766	-0.440574833859632	-0.447894696999658	0.674477891330498	0.574393619444025	-0.325274216979675	-0.330678435669182
6144	50089.4775390625	1214	0.542903467499271	1960	9.71746253159007	1954	1.19939024243344	-704	2.34776503729972	-62	6.9295164794653	164	-1.31762278390582	130	0.239085239085239	-483	-0.650627615062761	-35	-0.563981042654028	1.65932994706658	0.777399622178602	-0.44363133942506	-0.445915981005944	0.675122948731629	0.573491765883293	-0.327269158602185	-0.328954550641559
9356	50187.5	1217	0.531098599557197	1961	9.68143600195623	1949	1.25974925496828	-472	-2.4318277248448	258	3.33789928044499	183	-1.51290661757904	131	0.237006237006237	-492	-0.669456066945607	-37	-0.559241706161137	1.65232288473328	0.773723351555296	-0.443468965040993	-0.452423974059189	0.677703373231918	0.568946163585267	-0.326098425001678	-0.332683360063457
12568	50285.5224609375	1213	0.470990139321533	1966	9.73022985764293	1952	1.22420576125739	-547	-3.63696240254575	336	4.46788968459492	157	-1.09076350761351	132	0.234927234927235	-497	-0.679916317991632	-34	-0.566350710900474	1.65436226440896	0.77394706425932	-0.440695505297233	-0.454745437948745	0.676953207008903	0.569645205474837	-0.324363374783428	-0.334704491303893
15780	50383.544921875	1218	0.56819961308943	1958	9.66901679904983	1940	1.36781197977272	-812	-3.27827060889813	307	8.51632001434265	122	-0.562113706009423	126	0.247401247401247	-491	-0.667364016736402	-32	-0.571090047393365	1.64043213351163	0.773421705337894	-0.441442897827279	-0.454914314646262	0.68206321505669	0.565598047753708	-0.322824197307429	-0.33267575306376
18992	50481.5673828125	1217	0.506404743147756	1963	9.68168294052033	1954	1.19975522967696	-395	5.17047911839008	-242	2.24014353471053	193	-1.81804522229432	127	0.245322245322245	-480	-0.644351464435146	-34	-0.566350710900474	1.66248685819285	0.777115213536358	-0.441138426780925	-0.448875075391351	0.673957673251698	0.574109375675518	-0.325899818166188	-0.331615421755185
22204	50579.58984375	1217	0.507850237181479	1963	9.68166848557999	1942	1.34431908798963	-678	-1.81253124707688	213	6.48465816948971	131	-0.729211714311371	126	0.247401247401247	-496	-0.677824267782427	-29	-0.578199052132702	1.64538370746779	0.772891935778913	-0.441822337252506	-0.455446020855005	0.680250600320674	0.566514036032276	-0.323846768091689	-0.333832650497747
25416	50677.6123046875	1217	0.483638212116613	1965	9.68191060583064	1943	1.3325130154692	-469	-2.62792005235905	271	3.28805840934123	170	-1.309964562823	133	0.232848232848233	-497	-0.679916317991632	-30	-0.575829383886256	1.64688445151649	0.771357599708638	-0.441449681960856	-0.458398987420769	0.679700401462016	0.565782972314725	-0.323798862267703	-0.336231005835617
28628	50775.634765625	1217	0.496647658420123	1964	9.68178051136761	1935	1.42876846317483	-475	-4.56987284424229	399	3.35719588100483	152	-0.995559064854285	128	0.243243243243243	-486	-0.656903765690377	-30	-0.575829383886256	1.64091109214558	0.768388289225104	-0.441113581550193	-0.46367903247147	0.681888065899735	0.562042637141294	-0.322655412803515	-0.339161059391214
31840	50873.6572265625	1212	0.580245396703792	1957	9.74118549784019	1946	1.29540236531007	-551	-5.5026995957256	459	4.51642308524896	199	-1.69643712872235	131	0.237006237006237	-482	-0.648535564853556	-31	-0.57345971563981	1.64359523969928	0.768811648412513	-0.443342204394531	-0.460843074232251	0.680905783461803	0.5630553727694	-0.324690983383528	-0.337508113314654
35052	50971.6796875	1225	0.483758669952756	1965	9.5855238590836	1934	1.44094554583059	-537	-13.9866558651748	1019	4.2145397717783	190	-1.38897478226785	127	0.245322245322245	-495	-0.675732217573222	-26	-0.585308056872038	1.62870747640316	0.76507932532065	-0.438463593463023	-0.471596547034001	0.686338551450166	0.556428571925293	-0.318886765172502	-0.342983772409548
38264	51069.7021484375	1217	0.534110045460787	1961	9.6814058874972	1924	1.56092395978636	-411	-6.29356781401518	514	2.36789949396685	194	-1.60407353043127	130	0.239085239085239	-488	-0.661087866108787	-26	-0.585308056872038	1.62834301348409	0.763307040435039	-0.440613543022974	-0.472463826897937	0.686471073749455	0.555044142762972	-0.320395271262738	-0.343555431687907
41476	51167.724609375	1214	0.532785009263208	1961	9.71756371617243	1938	1.39226251135315	-520	-5.09898398128043	433	4.039556856623	152	-0.984976842113522	129	0.241164241164241	-484	-0.652719665271966	-29	-0.578199052132702	1.63708699451137	0.766382844917716	-0.440284717583357	-0.467767786918223	0.683285399186596	0.559575505229984	-0.321474501837525	-0.341541303319726
44688	51265.7470703125	1217	0.508813899870628	1963	9.6816588489531	1934	1.44069499353141	-482	-2.34392282927561	252	3.49086553897743	178	-1.43811848156513	132	0.234927234927235	-489	-0.663179916317992	-27	-0.582938388625592	1.64180760025598	0.76636332609898	-0.441963273967394	-0.466214239244717	0.68156011904532	0.560795654217719	-0.323411983486196	-0.341157921313538
47900	51363.76953125	1220	0.545312624222144	1960	9.64514928339633	1928	1.51261916291441	-568	-4.29503500421561	379	4.77600733631131	117	-0.465232184177782	125	0.249480249480249	-490	-0.665271966527197	-25	-0.587677725118483	1.6357916782436	0.765693411314677	-0.442288303211049	-0.467006056397542	0.683758144339287	0.558733150691324	-0.322741626759891	-0.340778386527991
51112	51461.7919921875	1220	0.546035371239005	1960	9.64514205592616	1922	1.58490109207074	-800	-5.6089152515728	461	8.31113553194517	135	-0.714521021361685	128	0.243243243243243	-494	-0.673640167364017	-26	-0.585308056872038	1.62532128314144	0.766956392330781	-0.438786895430826	-0.468234933191801	0.687568926177162	0.556901698209172	-0.318611552965539	-0.339994336135488
54324	51559.814453125	1236	0.484842790478049	1965	9.45298289739642	1914	1.68189856004703	-564	-13.5856854450647	992	4.63296843273935	201	-1.56539590530569	129	0.241164241164241	-472	-0.627615062761506	-26	-0.585308056872038	1.60586154568078	0.760833418704517	-0.43619252882696	-0.480487863299312	0.694601312454397	0.547339678305109	-0.313794679016277	-0.345660516562945
57536	51657.8369140625	1218	0.51086168308507	1963	9.66959017834987	1916	1.65754198557879	-484	-7.74069877119961	608	3.46914110697849	196	-1.6057494048577	127	0.245322245322245	-483	-0.650627615062761	-26	-0.585308056872038	1.61298789569437	0.763700564813418	-0.433761934065671	-0.478133905782967	0.692033578564665	0.551288945155369	-0.313117693107951	-0.345148280237958
60748	51755.859375	1222	0.532785009263208	1961	9.62117817400375	1930	1.48864805352183	-632	-7.27040464072849	574	5.72763045971117	142	-0.788455961073979	132	0.234927234927235	-496	-0.677824267782427	-26	-0.585308056872038	1.61737509427964	0.766818440165346	-0.434891437672057	-0.472079354835517	0.690448431610787	0.554702362912728	-0.314592471244154	-0.341493526881165
63960	51853.8818359375	1218	0.557719781344936	1959	9.66912159736727	1927	1.52454328411426	-606	-1.44199425950541	190	5.39261776605292	161	-1.19589985761455	129	0.241164241164241	-494	-0.673640167364017	-23	-0.592417061611374	1.62537623983216	0.769831940982959	-0.437264193391135	-0.464928820165421	0.687548973365722	0.559004233477973	-0.317514151130015	-0.337602488156753
1636	51951.904296875	1219	0.546396744747436	1960	9.65718663496216	1920	1.60899386387783	-535	-1.04143847348935	165	4.31570778605041	188	-1.61726063653144	129	0.241164241164241	-477	-0.638075313807531	-23	-0.592417061611374	1.62423943397571	0.767483029122129	-0.440756328785961	-0.465514402188207	0.687961601247233	0.556998573193963	-0.319877621972698	-0.337845721639809
4848	52049.9267578125	1224	0.558081154853367	1959	9.59682882700568	1918	1.63297340531894	-489	-3.45269321954749	325	3.59281743583434	219	-2.04362219194708	133	0.232848232848233	-494	-0.673640167364017	-22	-0.59478672985782	1.62077415509768	0.764743536835191	-0.441621397745009	-0.469188516400975	0.689218026001197	0.554097995828075	-0.319978554402661	-0.339952420754299
8060	52147.94921875	1234	0.473278838208262	1966	9.47719492246129	1912	1.70611058511189	-140	-5.33177194046573	456	-1.75585415924844	248	-2.4500087742954	131	0.237006237006237	-493	-0.671548117154812	-19	-0.601895734597156	1.62084352525467	0.758918672747071	-0.440115090682278	-0.479938699324773	0.689192894373928	0.54989570925971	-0.318897674596144	-0.347752981898675
11272	52245.9716796875	1220	0.534712334641505	1961	9.64525528629214	1916	1.65730347906322	-428	-5.23774566210798	444	2.63925399684825	199	-1.70173620739471	127	0.245322245322245	-483	-0.650627615062761	-23	-0.592417061611374	1.62582302213464	0.760053401005613	-0.439797685235799	-0.478431629055848	0.687386743405526	0.552020388541539	-0.31942135744978	-0.34748086570304
14484	52343.994140625	1226	0.508813899870628	1963	9.57322511401334	1925	1.54912872847117	-645	-7.04716337308033	559	5.9360946697838	191	-1.54307387889479	130	0.239085239085239	-482	-0.648535564853556	-23	-0.592417061611374	1.62684069694778	0.761970362653501	-0.43884390034449	-0.476253291398734	0.687017090107914	0.553679102914918	-0.318882083833638	-0.346065290812157
17696	52442.0166015625	1222	0.533387298443926	1961	9.62117215111195	1925	1.54888299448544	-637	0.913177424206707	34	5.88752054224195	142	-0.952127602372683	132	0.234927234927235	-486	-0.656903765690377	-25	-0.587677725118483	1.63510971096966	0.765436505397114	-0.440921066990488	-0.468716938982818	0.684006923313778	0.558367189957711	-0.321641122983684	-0.341917531055872
20908	52540.0390625	1220	0.533989587624644	1961	9.64526251376231	1922	1.58502154990689	-659	-0.897362917892074	153	6.20835208017069	162	-1.22210173123187	133	0.232848232848233	-493	-0.671548117154812	-25	-0.587677725118483	1.63196355892553	0.765409162509209	-0.441810537970669	-0.467923351079019	0.685153596973153	0.557522977148476	-0.321814185836865	-0.340834722850248
24120	52638.0615234375	1218	0.484963248314193	1965	9.66984916269758	1931	1.47707807836023	-596	4.9577084830278	-232	5.29832357450446	117	-0.65028705392265	126	0.247401247401247	-494	-0.673640167364017	-26	-0.585308056872038	1.64785483723074	0.771529095583057	-0.438631856545832	-0.460809015853582	0.679344437433747	0.566163135501954	-0.321876632592007	-0.338150665706356
27332	52736.083984375	1219	0.594459421368738	1956	9.65670600819595	1921	1.59646504434053	-237	11.9184905776106	-684	-0.108883034565124	173	-1.64682051577757	130	0.239085239085239	-485	-0.654811715481171	-25	-0.587677725118483	1.64659319703406	0.764372039305807	-0.451887174619263	-0.459927567060402	0.679807210358069	0.560583468941138	-0.331409924607052	-0.337306674951813
30544	52834.1064453125	1219	0.521221056993421	1962	9.6574383918397	1929	1.50081188581561	-635	1.68691865312912	-17	5.86025291055407	112	-0.508325023399386	135	0.228690228690229	-494	-0.673640167364017	-28	-0.580568720379147	1.64625955607646	0.765786211697961	-0.445154077495863	-0.464122101673786	0.679929545513076	0.561533757666174	-0.326421445121636	-0.340330269450707
33756	52932.12890625	1221	0.557117492164218	1959	9.63298304194583	1929	1.5004529214639	-510	4.34731598027218	-190	3.9804714533405	135	-0.913645645998585	127	0.245322245322245	-488	-0.661087866108787	-26	-0.585308056872038	1.649549407278	0.766529646503789	-0.445842508472639	-0.462230200949269	0.67872243934351	0.562935453272349	-0.327424458714508	-0.339459496282196
36968	53030.1513671875	1217	0.520980141321133	1962	9.68153718653859	1933	1.45262152388799	-650	0.530362198911723	59	6.07740248619067	110	-0.454575400744922	125	0.249480249480249	-480	-0.644351464435146	-28	-0.580568720379147	1.64884397896225	0.768292272659817	-0.442700039755922	-0.462324192067988	0.678981428593317	0.564045956476944	-0.325010645352506	-0.339417823655351
40180	53128.173828125	1215	0.568320070925574	1958	9.70516017278472	1942	1.34371438965219	-744	1.27467017742728	8	7.52179737484604	111	-0.484770807100291	131	0.237006237006237	-491	-0.667364016736402	-31	-0.57345971563981	1.65104855322195	0.771245268716451	-0.444220554879112	-0.455904413342735	0.6781717661635	0.566790795530131	-0.3264592107123	-0.335045718405864
43392	53226.1962890625	1214	0.542903467499271	1960	9.71746253159007	1954	1.19939024243344	-550	-5.68431593578361	471	4.50081801416519	209	-1.84589726977177	133	0.232848232848233	-499	-0.684100418410042	-30	-0.575829383886256	1.65187525445186	0.770927773004149	-0.444101847223847	-0.456556588062454	0.677867935450476	0.566773527002078	-0.326496435999904	-0.335652958361898
46604	53324.21875	1218	0.520257394304272	1962	9.66949622123768	1938	1.39238778750274	-528	-3.87373885898642	352	4.17814974131617	177	-1.39221291418586	128	0.243243243243243	-499	-0.684100418410042	-31	-0.57345971563981	1.64564888404059	0.769562204704984	-0.441475208181531	-0.461382329148699	0.680153409830126	0.564142815387643	-0.323632144802188	-0.338225454088974
49816	53422.2412109375	1214	0.555671998130494	1959	9.71733484628376	1948	1.27155171375363	-859	-1.15545384057164	166	9.25844096733282	136	-0.818899496366767	127	0.245322245322245	-487	-0.658995815899582	-32	-0.571090047393365	1.649445247026	0.774962040176427	-0.439874258188012	-0.453811054591154	0.678760685801289	0.569100765980918	-0.323025857128557	-0.333260476499775
53028	53520.263671875	1216	0.566874576891851	1958	9.69312643495397	1953	1.2111987241106	-525	3.20577325978996	-115	4.20496951505018	180	-1.57973089691656	129	0.241164241164241	-499	-0.684100418410042	-34	-0.566350710900474	1.65939525475982	0.777006326439996	-0.44249995892701	-0.447721961737212	0.675098859458319	0.573218758640129	-0.326444288190795	-0.330296702085794
56240	53618.2861328125	1214	0.567115492564138	1958	9.71722041133942	1953	1.21119631495388	-623	-0.401470535246036	121	5.67085847849344	212	-1.9974819181377	129	0.241164241164241	-498	-0.682008368200837	-30	-0.575829383886256	1.65604509739218	0.775602877052214	-0.444312452700089	-0.448359924038668	0.676333662984739	0.571305507784652	-0.327278506714177	-0.330259855464609
59452	53716.30859375	1207	0.652640556226104	1951	9.80070251010039	1950	1.24648564263051	-562	4.84656887129576	-224	4.79102277845025	205	-1.99527797877313	126	0.247401247401247	-496	-0.677824267782427	-36	-0.561611374407583	1.66136706765221	0.777513809371756	-0.445780126674702	-0.44356775682877	0.674371201399837	0.574110364784348	-0.329160701783058	-0.327527104483594
62664	53814.3310546875	1216	0.530255394704192	1961	9.69349262677585	1957	1.16337214484814	-595	1.75949790162181	-21	5.26343117724773	202	-1.88760881902448	129	0.241164241164241	-488	-0.661087866108787	-37	-0.559241706161137	1.66424143172398	0.778107397769092	-0.442839840360169	-0.445468016053669	0.673309300875911	0.575302209540441	-0.327418476372519	-0.329361646798434
340	53912.353515625	1215	0.554708335441345	1959	9.70529629013956	1955	1.18722400098294	-443	-2.60491765769099	270	2.89597384877003	203	-1.81562975462328	129	0.241164241164241	-504	-0.694560669456067	-37	-0.559241706161137	1.65871078376185	0.775138100645521	-0.443929251928287	-0.449541704639343	0.675351296379406	0.571661393960362	-0.32739613078723	-0.331535293263783
3552	54010.3759765625	1217	0.506163827475469	1963	9.68168534967705	1956	1.17566125329151	-466	-1.92983576193586	225	3.25346183845445	197	-1.73727591182803	127	0.245322245322245	-482	-0.648535564853556	-33	-0.56872037914692	1.66166181582	0.773969384088264	-0.443373880888634	-0.452096222324168	0.674262374158747	0.571570102356829	-0.327428009029568	-0.333869387318675
6764	54108.3984375	1216	0.50688657449233	1963	9.69372631497797	1951	1.23589498967676	-534	0.232183014500689	81	4.30958790443796	163	-1.26000189666478	123	0.253638253638254	-488	-0.661087866108787	-36	-0.561611374407583	1.6634951626918	0.775100020412409	-0.441035138563206	-0.452446643162724	0.673585135080264	0.572883900122619	-0.325973324238561	-0.334407677340191
9976	54206.4208984375	1218	0.568922360106292	1958	9.66900957157966	1934	1.44009390892906	-395	3.59412733870418	-138	2.22207454447567	180	-1.58749797849484	130	0.239085239085239	-494	-0.673640167364017	-35	-0.563981042654028	1.64805533832031	0.767985094151042	-0.447699792835174	-0.457999771459723	0.679270868210215	0.563614778481752	-0.328561350326802	-0.336120377468155
13188	54304.443359375	1209	0.591207059792861	1956	9.77722045952255	1958	1.15071443542617	-415	6.78627116707684	-349	2.56030459339883	180	-1.6513408550623	128	0.243243243243243	-498	-0.682008368200837	-32	-0.571090047393365	1.6722400367156	0.773684416630468	-0.447456453569395	-0.448547818657356	0.670346996155322	0.574110802187363	-0.332034067096035	-0.332843912134478
16400	54402.4658203125	1219	0.4838791277889	1965	9.65781181113175	1939	1.38070337739681	-455	-2.59323142205005	269	3.06969723955538	139	-0.836071685092373	126	0.247401247401247	-495	-0.675732217573222	-33	-0.56872037914692	1.65005140548036	0.767025456248436	-0.442805559348873	-0.464322286861841	0.678538085508908	0.563430225145014	-0.325269564350144	-0.341075004089147
19612	54500.48828125	1219	0.567597323908712	1958	9.65697462917055	1944	1.31962523158019	-381	1.27940458425255	15	1.97883082375816	143	-0.974761392358658	125	0.249480249480249	-486	-0.656903765690377	-33	-0.56872037914692	1.65952977539372	0.768662269434461	-0.445561119561989	-0.458948367774123	0.675049238161067	0.567098021860299	-0.328722820891638	-0.338599566871168
22824	54598.5107421875	1219	0.543626214516133	1960	9.65721434026448	1943	1.3319131354452	-547	-2.5607077142442	265	4.47565254059074	136	-0.790794418893316	126	0.247401247401247	-499	-0.684100418410042	-34	-0.566350710900474	1.65551414092373	0.769237791960142	-0.443746953493875	-0.459741080049618	0.676529189193757	0.56647887736842	-0.326782275491597	-0.338560603273308
26036	54696.533203125	1219	0.579402191850787	1957	9.65685658049113	1946	1.2954107973586	-628	0.0521828259629577	91	5.72924560300433	64	0.25921353882673	128	0.243243243243243	-501	-0.688284518828452	-32	-0.571090047393365	1.65527689868618	0.77105045946292	-0.445819405368817	-0.454671581208474	0.676616538901989	0.567751873094497	-0.328272682226698	-0.334790854095019
29248	54794.5556640625	1215	0.61650320538302	1954	9.70467834144015	1942	1.34323255830762	-274	14.9844720598952	-887	0.473182936106975	77	-0.238452454057671	128	0.243243243243243	-494	-0.673640167364017	-32	-0.571090047393365	1.6729635398664	0.772268024780039	-0.452046951936952	-0.446380612422682	0.670078515346275	0.573247008548478	-0.335550035229185	-0.33134396677659
32460	54892.578125	1219	0.555671998130494	1959	9.65709388242833	1943	1.33179267760906	-866	-8.22101241204638	632	9.29197900134894	127	-0.539805103871748	127	0.245322245322245	-487	-0.658995815899582	-30	-0.575829383886256	1.6401452855798	0.76739320380499	-0.44475533136173	-0.461844525765144	0.682168093014732	0.561114370061478	-0.325203046301592	-0.33769858640409
35672	54990.6005859375	1220	0.544830792877569	1960	9.64515410170978	1932	1.46443121014351	-558	1.25552926036083	13	4.68866736400845	175	-1.46417978300269	130	0.239085239085239	-489	-0.663179916317992	-32	-0.571090047393365	1.64507820634144	0.769595464542179	-0.442038109495496	-0.460787511451598	0.680362555433668	0.564017815587724	-0.323958989379559	-0.337699970482077
38884	55088.623046875	1215	0.532303177918633	1961	9.70552034171479	1941	1.35612275135334	-524	-1.96258087271751	226	4.1326822047051	152	-1.04770490428478	131	0.237006237006237	-500	-0.686192468619247	-31	-0.57345971563981	1.64768750525719	0.770258060717833	-0.442338821597837	-0.45938968948665	0.679405830792928	0.565186643342798	-0.324571733226786	-0.337083024285758
42096	55186.6455078125	1216	0.567476866072569	1958	9.69312041206217	1948	1.27143366507421	-556	2.07485352729026	-41	4.65635335046561	109	-0.470155980527434	127	0.245322245322245	-494	-0.673640167364017	-31	-0.57345971563981	1.65671645732987	0.773216119527619	-0.444103942285295	-0.452668223922676	0.676086364565064	0.569722945631956	-0.327225726127021	-0.333536080552445
45308	55284.66796875	1220	0.5565152029835	1959	9.64503725760872	1935	1.4281697877292	-187	17.3603029591832	-1042	-0.822910239332249	138	-1.21983312593198	130	0.239085239085239	-487	-0.658995815899582	-34	-0.566350710900474	1.66959277341997	0.770940106226465	-0.45016851030308	-0.450554841215842	0.671328606567461	0.571389842438999	-0.33364681911816	-0.333933152073975
48520	55382.6904296875	1216	0.568681444434005	1958	9.69310836627855	1938	1.39190354700144	-586	-1.90581703276776	221	5.0846660713775	177	-1.43157135071023	132	0.234927234927235	-499	-0.684100418410042	-36	-0.561611374407583	1.64898114074273	0.766509888407241	-0.44676554755122	-0.46137093156719	0.678931077962521	0.562773100695326	-0.328016162976966	-0.338739465277205
51732	55480.712890625	1222	0.53218272008249	1961	9.62118419689556	1935	1.42841311255821	-473	0.311385129654847	77	3.38162283805813	186	-1.61369861502421	127	0.245322245322245	-494	-0.673640167364017	-32	-0.571090047393365	1.65237478590436	0.768139425768394	-0.442690482140412	-0.462587245395386	0.67768429061975	0.564853614254728	-0.325533764372323	-0.340164908484344
54944	55578.7353515625	1216	0.567838239580999	1958	9.69311679832708	1945	1.30757462965238	-542	-0.30080273363895	116	4.42764426229924	171	-1.37181615598246	126	0.247401247401247	-496	-0.677824267782427	-32	-0.571090047393365	1.65690590098515	0.770331404342022	-0.443738001136994	-0.457914963537328	0.676016568369172	0.567646752489255	-0.326984508072388	-0.337431319173885
58156	55676.7578125	1214	0.567356408236425	1958	9.7172180021827	1951	1.23529029133932	-477	4.73626172967387	-215	3.48406330405681	161	-1.31946497739813	132	0.234927234927235	-490	-0.665271966527197	-37	-0.559241706161137	1.66742484832891	0.772089268338436	-0.446945239804082	-0.451794327468916	0.672131601515187	0.571679373615906	-0.33093242609326	-0.334522844342183
61368	55774.7802734375	1221	0.507488863673049	1963	9.63347932823074	1941	1.3563708944958	-522	8.4513154312109	-461	4.20803074388209	150	-1.22536433679323	126	0.247401247401247	-482	-0.648535564853556	-35	-0.563981042654028	1.66613527098377	0.771480355668917	-0.444630263296565	-0.455106569693064	0.672608883738341	0.570894050298009	-0.32902558053906	-0.336778028086055
64580	55872.802734375	1216	0.543987588024564	1960	9.69335530484265	1943	1.33190952171012	-696	-1.90906050905364	219	6.76291023133589	158	-1.14063079226841	133	0.232848232848233	-501	-0.688284518828452	-35	-0.563981042654028	1.65239000475567	0.769351710797166	-0.445298125812039	-0.458047513083261	0.677678694986313	0.56574903902828	-0.327453599210458	-0.336828964853591
2256	55970.8251953125	1217	0.555551540294351	1959	9.68119147254886	1946	1.29564930387416	-552	-1.18295128804802	174	4.56903195849554	155	-1.10922523633334	126	0.247401247401247	-486	-0.656903765690377	-37	-0.559241706161137	1.65633529335751	0.771971263423068	-0.442838438734712	-0.456020268878473	0.676226777359654	0.568706229051824	-0.326236209176086	-0.335947178053112
5468	56068.84765625	1218	0.566995034727994	1958	9.66902884483344	1950	1.24734209784549	-588	-0.360302915844324	119	5.12854785407188	161	-1.21753368448777	129	0.241164241164241	-488	-0.661087866108787	-39	-0.554502369668247	1.65798153612343	0.773428013679874	-0.443646907298225	-0.452754380762821	0.675620160155807	0.570209717424088	-0.327078633269285	-0.333793117072356
8680	56166.8701171875	1218	0.554106046260627	1959	9.66915773471812	1957	1.16313363833257	-596	0.910552795480508	35	5.26071680571989	141	-0.936765863013101	124	0.251559251559252	-502	-0.690376569037657	-39	-0.554502369668247	1.6653017397782	0.77773622280771	-0.441307807275146	-0.447631306960089	0.672917231098286	0.575305315337639	-0.326443233296801	-0.331120838471406
11892	56264.892578125	1216	0.60385513258794	1955	9.69275662939701	1946	1.29516626795123	-163	19.8686281063171	-1207	-1.16336407874074	143	-1.34654586279995	128	0.243243243243243	-497	-0.679916317991632	-38	-0.556872037914692	1.68110524008508	0.776098677130915	-0.451363444787773	-0.44038833325255	0.667051219231749	0.578202718670312	-0.336271119349769	-0.328094531095766
15104	56362.9150390625	1215	0.56651320338342	1958	9.70517824146014	1957	1.16300956676135	-758	2.81629965333064	-94	7.75991120854366	166	-1.35761196979656	127	0.245322245322245	-495	-0.675732217573222	-39	-0.554502369668247	1.66939345661932	0.776303274103114	-0.445520573305458	-0.445942423837835	0.671402466037198	0.575312866770699	-0.330172146355836	-0.330484776802244
18316	56460.9375	1216	0.530134936868048	1961	9.69349383135421	1958	1.15132515665542	-537	4.06604389168672	-172	4.39944277163754	195	-1.82657501133037	128	0.243243243243243	-494	-0.673640167364017	-42	-0.54739336492891	1.67358682721625	0.777725498061072	-0.443300881736807	-0.445676315185165	0.669847152755749	0.57746041869601	-0.329150469432012	-0.330914226435085
21528	56558.9599609375	1211	0.529291732015043	1961	9.75374322725816	1970	1.00675527545093	-555	3.28748640675511	-121	4.66752320378472	201	-1.90285934234208	129	0.241164241164241	-503	-0.692468619246862	-42	-0.54739336492891	1.68156471999386	0.779910091132116	-0.443528690149378	-0.441613576291164	0.666880042638983	0.581161771876736	-0.330502095531568	-0.329075019544424
24740	56656.982421875	1212	0.578077155653207	1957	9.7412071802507	1964	1.07855657784106	-402	4.39531699314864	-191	2.33845598234963	188	-1.7259957458642	125	0.249480249480249	-503	-0.692468619246862	-43	-0.545023696682465	1.6800312438652	0.778178202040197	-0.44668039355696	-0.441492142490991	0.667451192995233	0.579473158300059	-0.332622139410421	-0.328758689851736
27952	56755.0048828125	1211	0.600964144520494	1955	9.75302650313311	1975	0.945797587470458	-278	9.31387136816598	-513	0.49806288339302	218	-2.28364423691629	130	0.239085239085239	-486	-0.656903765690377	-45	-0.540284360189573	1.69635924338534	0.778270673892538	-0.45156854060168	-0.436326267027008	0.661349666163653	0.583763509749239	-0.338711511299187	-0.327278621153133
31164	56853.02734375	1214	0.52953264768733	1961	9.71759623978819	1965	1.06699383014963	-573	1.12973629318397	21	4.9140343401951	158	-1.20140672831316	130	0.239085239085239	-502	-0.690376569037657	-46	-0.537914691943128	1.67907655397006	0.774913747433716	-0.447200340255643	-0.446677220947601	0.667806573547942	0.576795313894032	-0.332866801609214	-0.332477425673524
34376	56951.0498046875	1210	0.52953264768733	1961	9.76578901087252	1969	1.0188010590653	-342	4.55011788352955	-200	1.42072801879248	173	-1.49945306189594	130	0.239085239085239	-504	-0.694560669456067	-41	-0.549763033175355	1.68922868187444	0.775259961126704	-0.448502680129064	-0.444766611371479	0.664019694958506	0.579673565849428	-0.335352218506934	-0.332558703547358
37588	57049.072265625	1211	0.564947251513553	1958	9.75338667206318	1974	0.958205949171612	-398	0.319138922516924	78	2.23589802212228	189	-1.65978143123662	127	0.245322245322245	-504	-0.694560669456067	-45	-0.540284360189573	1.69071408809044	0.775050742228667	-0.449010308351723	-0.44461903913877	0.663464181554587	0.57989920123577	-0.335953125354172	-0.332667542397784
40800	57147.0947265625	1201	0.731419981064028	1944	9.87220387247852	2002	0.619191824285745	-455	4.51559644274916	-200	3.14680005781185	169	-1.4375256459401	126	0.247401247401247	-490	-0.665271966527197	-41	-0.549763033175355	1.7077089011313	0.778149293929264	-0.456078840988754	-0.431828400131051	0.657082477263583	0.586583481725072	-0.34380075465652	-0.325520319086309
44012	57245.1171875	1206	0.514957249513953	1962	9.81412753593859	1994	0.717741993769921	-468	-8.20553275129762	639	3.2117497540864	143	-0.785062645647655	135	0.228690228690229	-505	-0.696652719665272	-46	-0.537914691943128	1.69751505756184	0.774315486843834	-0.453265689412589	-0.441571898602172	0.660916080506276	0.581092657317163	-0.340157685603127	-0.331381965510231
47224	57343.1396484375	1212	0.563381299643686	1958	9.74135413881079	1986	0.813643295437298	-550	-0.985398268291472	161	4.54583821748445	190	-1.64899993420551	130	0.239085239085239	-507	-0.700836820083682	-43	-0.545023696682465	1.69898302128487	0.775405063925063	-0.451722944302165	-0.44124071483755	0.660365078635992	0.582286333670901	-0.339218957045852	-0.331347382242419
50436	57441.162109375	1214	0.58783424038084	1956	9.71701322386125	1981	0.873639729885348	-526	-3.67595930858971	339	4.14362946829667	138	-0.799107880576522	127	0.245322245322245	-484	-0.652719665271966	-46	-0.537914691943128	1.69081549674685	0.773669174278582	-0.452591603674378	-0.443392432337937	0.663426243315422	0.578891526857783	-0.338647904304033	-0.331764700839523
53648	57539.1845703125	1215	0.527605322309032	1961	9.70556732027089	1980	0.886290211837151	-686	0.352798020997511	70	6.61722448074907	54	0.406293702776621	131	0.237006237006237	-489	-0.663179916317992	-45	-0.540284360189573	1.69202760982101	0.776140697835429	-0.450330785006385	-0.441370367422946	0.662972644738741	0.581052782984589	-0.337137269855004	-0.330429110383299
56860	57637.20703125	1211	0.623730675551637	1953	9.7527988378228	1986	0.813039801678219	-412	-5.65717721646613	472	2.38584687545927	169	-1.2340701727558	134	0.230769230769231	-507	-0.700836820083682	-47	-0.535545023696683	1.68820601315251	0.773875224989537	-0.453395640104962	-0.442209825401024	0.664401940547544	0.578375343554302	-0.338856769985466	-0.330496766701458
60072	57735.2294921875	1218	0.575427083258047	1957	9.66894452434814	1980	0.88581199422766	-300	-4.09198447855377	371	0.687762435875176	154	-1.03573532573817	133	0.232848232848233	-506	-0.698744769874477	-47	-0.535545023696683	1.68904325661435	0.772241038099005	-0.452885913224901	-0.445576176066696	0.664089014736401	0.577368727602386	-0.338601745526741	-0.333136594836835
63284	57833.251953125	1209	0.587713782544696	1956	9.77725539229504	1987	0.801351777837204	-630	0.506033622841798	61	5.77776094402287	151	-1.08176794741091	129	0.241164241164241	-492	-0.669456066945607	-47	-0.535545023696683	1.69781209656162	0.776798398584467	-0.450844634703071	-0.439685527753713	0.660804615300957	0.583032226070303	-0.338385032026043	-0.33000947541123
960	57931.2744140625	1213	0.563983588824404	1958	9.7292999231479	1980	0.885926429171997	-562	-0.958609523394213	159	4.72247131828553	144	-0.945310356990781	136	0.226611226611227	-491	-0.667364016736402	-52	-0.523696682464455	1.69106415209609	0.775043324366739	-0.452045098743615	-0.441546230938991	0.663333211039458	0.579983646064602	-0.338276269612634	-0.330419713162901
4172	58029.296875	1215	0.623730675551637	1953	9.70460606673846	1982	0.861232572762556	-554	-0.637986455977879	138	4.61005657694125	187	-1.61002043009661	132	0.234927234927235	-507	-0.700836820083682	-46	-0.537914691943128	1.69131779903228	0.775955978074621	-0.452323383888516	-0.439654269259269	0.663238300639665	0.580731880457636	-0.338522566643952	-0.32904089632983
7384	58127.3193359375	1221	0.539048816742676	1960	9.63316372870004	1979	0.898223969663899	-506	-10.0817034681133	762	3.78195933653465	199	-1.6048570512746	129	0.241164241164241	-500	-0.686192468619247	-48	-0.533175355450237	1.68009699834329	0.774196827965318	-0.447113864021105	-0.448004982303274	0.667426710481838	0.576525402600288	-0.332954735994456	-0.333618329938315
10596	58225.341796875	1212	0.55254009439076	1959	9.74146255086332	1976	0.934233635200671	-374	-5.32734305676541	451	1.81287751989575	198	-1.6846350127165	127	0.245322245322245	-493	-0.671548117154812	-49	-0.530805687203792	1.68278705318755	0.774539517174338	-0.446180206006874	-0.448343350684502	0.666424498108216	0.577475382641831	-0.332659702284803	-0.334272483521557
13808	58323.3642578125	1218	0.514716333841665	1962	9.66955163184231	1984	0.838226330637487	-737	-7.69673523517639	600	7.33524568847401	189	-1.49946394808276	131	0.237006237006237	-501	-0.688284518828452	-48	-0.533175355450237	1.68031946606834	0.777329359649853	-0.443148574893171	-0.446518092798602	0.667343873221849	0.578915827869929	-0.330034779876603	-0.332544227414547
17020	58421.38671875	1214	0.588075156053127	1956	9.71701081470453	1979	0.897733706270794	-514	-1.23207883951973	178	3.99326884075301	191	-1.659375569566	133	0.232848232848233	-505	-0.696652719665272	-49	-0.530805687203792	1.68303269395549	0.777994242992268	-0.446560846091767	-0.44193706408118	0.666332921578336	0.580114806141665	-0.332980045796506	-0.329532302540211
20232	58519.4091796875	1213	0.551094600357037	1959	9.72942881303258	1987	0.80171796965908	-568	0.994885626561207	30	4.83425111584505	145	-0.999689506774947	129	0.241164241164241	-507	-0.700836820083682	-48	-0.533175355450237	1.69238600289174	0.781556057039585	-0.445903500843096	-0.436279953287574	0.662838479751735	0.58519979845333	-0.333875780851121	-0.326670030170575
23444	58617.431640625	1222	0.527605322309032	1961	9.6212299708733	1973	0.970627561234741	-578	7.47930555361558	-398	5.05230873523078	139	-1.03752242460569	130	0.239085239085239	-484	-0.652719665271966	-49	-0.530805687203792	1.68970383178914	0.780199094197708	-0.447901315570396	-0.436662094672053	0.663842037842073	0.583489693556694	-0.334973218130376	-0.326567710348373
26656	58715.4541015625	1210	0.552058263046186	1959	9.76556375471894	1982	0.86194929688761	-714	0.177271562878968	81	7.05516048552402	131	-0.769007770510488	132	0.234927234927235	-511	-0.709205020920502	-51	-0.5260663507109	1.68805719715277	0.78260647233601	-0.445471370822155	-0.434836023387685	0.664457549420537	0.584862172263987	-0.332912342064812	-0.3249642703031
29868	58813.4765625	1218	0.562297179118393	1958	9.66907582338954	1989	0.777509558329298	-583	0.0655586480086671	91	5.06045450071886	187	-1.62409133217634	130	0.239085239085239	-507	-0.700836820083682	-48	-0.533175355450237	1.69082840038414	0.783705419353454	-0.445917412469751	-0.432392734597042	0.66342141578196	0.586404418273741	-0.333655904884746	-0.323536119230043
33080	58911.4990234375	1214	0.67082968948379	1949	9.71618326937022	1992	0.740279654912391	-798	-0.470020742656919	122	8.34033367620557	183	-1.5521427572228	129	0.241164241164241	-506	-0.698744769874477	-50	-0.528436018957346	1.68780263831509	0.786138029968243	-0.447473430252866	-0.426326784351374	0.664552663258381	0.58743490729405	-0.334370686821704	-0.318569036855445
36292	59009.521484375	1218	0.514354960333235	1962	9.66955524557739	1987	0.802085366059318	-813	-2.29330393095647	242	8.54027235134069	113	-0.444029818502732	124	0.251559251559252	-499	-0.684100418410042	-50	-0.528436018957346	1.68327837747893	0.78917983375973	-0.439825174163586	-0.42865954574573	0.666241319054759	0.588519983463673	-0.327993561356596	-0.319666947864039
39504	59107.5439453125	1208	0.636619664019003	1952	9.78881452625138	1982	0.861103682877882	-203	19.6895537419139	-1196	-0.548032759731816	181	-1.92471575334409	132	0.234927234927235	-510	-0.707112970711297	-51	-0.5260663507109	1.70664980733461	0.789159116753451	-0.449787014948205	-0.418233821718064	0.657481567464865	0.594608215912832	-0.338901304973033	-0.315126900629696
42716	59205.56640625	1214	0.56253809479068	1958	9.71726618531715	1991	0.753410763630406	-610	0.118115232644078	87	5.46476596027638	129	-0.737206150335674	132	0.234927234927235	-514	-0.715481171548117	-52	-0.523696682464455	1.69143209208522	0.785719292950511	-0.448174864578405	-0.426361916035519	0.663195530623013	0.588068605358392	-0.335434766504975	-0.319108948438067
45928	59303.5888671875	1212	0.622405639354057	1953	9.74076389541369	1996	0.692571124329351	-468	2.84428017497427	-90	3.32874443503419	171	-1.43471781415472	127	0.245322245322245	-507	-0.700836820083682	-53	-0.52132701421801	1.6995732346211	0.787505382649673	-0.447887402070122	-0.423358178573025	0.660143441091912	0.591526445880054	-0.336425945699026	-0.318001075577358
49140	59401.611328125	1211	0.586027372838685	1956	9.75317587084993	1999	0.656790328681252	-513	-1.44406550423322	192	3.98010965677906	219	-2.08379474625336	129	0.241164241164241	-496	-0.677824267782427	-55	-0.516587677725118	1.69845676983748	0.786697348356654	-0.447179682500706	-0.42560264760358	0.660562648644701	0.59062949874481	-0.335729505477519	-0.319530094951591
52352	59499.6337890625	1207	0.647340411435785	1951	9.80075551154829	1994	0.716418162150702	-424	-0.0829568159928573	104	2.63177045397883	206	-1.91199671181241	129	0.241164241164241	-507	-0.700836820083682	-55	-0.516587677725118	1.69648466940813	0.785136649866634	-0.449499811812227	-0.426040326984396	0.661302625229181	0.588946088068985	-0.337178446324629	-0.319581035963246
55564	59597.65625	1215	0.596025373238605	1955	9.70488311976159	2012	0.500063842653156	-563	-11.3874986471326	847	4.63872859677391	192	-1.47157642019881	130	0.239085239085239	-511	-0.709205020920502	-53	-0.52132701421801	1.69180032136778	0.784890996399189	-0.447434425794873	-0.428659023449992	0.663057719482808	0.587544498345166	-0.334935215784158	-0.320880545259767
58776	59695.6787109375	1205	0.610962144920414	1954	9.82521567975562	1998	0.668589173731519	-579	-0.281822552056255	114	4.99470552882849	180	-1.50997898067963	128	0.243243243243243	-509	-0.705020920502092	-54	-0.518957345971564	1.69690565192332	0.787406101733745	-0.44612135722933	-0.425402592347916	0.661144717043248	0.590758040124387	-0.334706294597077	-0.319161867257496
61988	59793.701171875	1215	0.561453974265388	1958	9.70522883375132	1999	0.657036062666985	-464	-3.58139805593922	334	3.20574269993253	195	-1.67362617237785	131	0.237006237006237	-496	-0.677824267782427	-55	-0.516587677725118	1.69482317327193	0.785473617309345	-0.446854765713299	-0.428196234068312	0.661925557050387	0.588767130298534	-0.334948739552163	-0.320962871802926
65200	59891.7236328125	1216	0.562056263446106	1958	9.69317461808843	1993	0.729319196401684	-539	-0.875927180497574	154	4.37853003761368	188	-1.62057086239127	129	0.241164241164241	-501	-0.688284518828452	-55	-0.516587677725118	1.69470674575035	0.785833391015058	-0.445459695703285	-0.428988975464069	0.66196919119307	0.589006524069968	-0.333885871966504	-0.321540555786317
2876	59989.74609375	1205	0.63517416998528	1952	9.82497355950497	1997	0.680395246251954	-383	-3.78412125595046	349	1.97137510801417	232	-2.23601383942478	125	0.249480249480249	-503	-0.692468619246862	-51	-0.5260663507109	1.69446967076901	0.784273813816951	-0.447884254072153	-0.429318389910386	0.662058034071603	0.587776027882111	-0.335668006723627	-0.321753772053349
6088	60087.7685546875	1216	0.561333516429244	1958	9.6931818455586	1999	0.657037267245346	-491	-7.75781196387663	609	3.56676556799796	136	-0.686852333900667	124	0.251559251559252	-495	-0.675732217573222	-52	-0.523696682464455	1.69131923022315	0.783919449208643	-0.446032241794653	-0.43188602250137	0.663237765081946	0.586692180263893	-0.333814435489084	-0.323227281097079
9300	60185.791015625	1209	0.610600771411983	1954	9.77702652240636	1997	0.680640980237687	-778	0.733735564278024	43	8.03729698318796	120	-0.611735335902829	130	0.239085239085239	-505	-0.696652719665272	-57	-0.511848341232228	1.69475397806641	0.788410087969559	-0.445050446011128	-0.424664142226687	0.661951489964827	0.590950163618587	-0.333586084072222	-0.318305597760816
12512	60283.8134765625	1212	0.538566985398101	1960	9.74160228195325	1992	0.741602281953248	-600	-2.69828520785286	273	5.29024583836756	175	-1.38510349363841	129	0.241164241164241	-510	-0.707112970711297	-54	-0.518957345971564	1.68896828716325	0.78790986500608	-0.442742516370119	-0.427991949485451	0.664117039856703	0.589063967129156	-0.331006977692448	-0.319979031689488
15724	60381.8359375	1215	0.550251395504032	1959	9.70534085953894	1992	0.741485437852189	-452	-6.86676404747079	551	2.98040977196288	140	-0.765910279369017	133	0.232848232848233	-509	-0.705020920502092	-51	-0.5260663507109	1.68085723610568	0.784117743511567	-0.445479995802608	-0.432095981987842	0.667143597055995	0.584112154904449	-0.331851029348946	-0.321880887472545
18936	60479.8583984375	1207	0.574342962732755	1957	9.80148548603532	2000	0.644858980011227	-62	1.64943967164306	-3	-2.87829043479109	238	-2.43654053868699	127	0.245322245322245	-497	-0.679916317991632	-52	-0.523696682464455	1.70189525376138	0.783942218796641	-0.44776262587992	-0.43005026270579	0.659270916153365	0.589450454622663	-0.336675174597814	-0.323357151566143
22148	60577.880859375	1216	0.562417636954537	1958	9.69317100435335	1990	0.765460160979852	-46	-6.71260775700051	549	-3.21133440588712	217	-1.9478054076279	131	0.237006237006237	-498	-0.682008368200837	-50	-0.528436018957346	1.69319301295444	0.775013000076684	-0.453015092790939	-0.44060432977418	0.662536296398913	0.5805078400322	-0.339321808785187	-0.330025777323395
25360	60675.9033203125	1210	0.563140383971399	1958	9.76545293350968	1990	0.765452933509684	-461	-6.38482299714549	519	3.1404827863222	255	-2.53611248065721	133	0.232848232848233	-508	-0.702928870292887	-51	-0.5260663507109	1.69418895695462	0.775578728291013	-0.44952282661148	-0.443178140906928	0.662163218395234	0.581187397733079	-0.336854264164289	-0.332099812759738
28572	60773.92578125	1212	0.551215058193181	1959	9.7414758012253	1987	0.801716765080719	-207	-6.00396678840004	499	-0.741624194309438	229	-2.14568918842061	126	0.247401247401247	-502	-0.690376569037657	-50	-0.528436018957346	1.69695610694508	0.774031895557437	-0.449269200341204	-0.446129813265754	0.661125789680977	0.580736839550467	-0.337075483595696	-0.334720079717915
31784	60871.9482421875	1214	0.551455973865468	1959	9.71737700652641	1983	0.849907127008333	-394	-5.22736111806997	444	2.12002679494775	201	-1.73256239184558	130	0.239085239085239	-493	-0.671548117154812	-47	-0.535545023696683	1.69366388318579	0.771878245499271	-0.451214069023174	-0.447894896198335	0.662359930118538	0.578280200277824	-0.338043161242507	-0.335556484182884
34996	60969.970703125	1209	0.611443976264988	1954	9.77701809035783	1990	0.764969897586748	-268	-0.717432665233907	149	0.243980138590417	225	-2.1901828837437	134	0.230769230769231	-504	-0.694560669456067	-48	-0.533175355450237	1.70346174727479	0.771661183771099	-0.454960305109719	-0.444466127208202	0.658681786457457	0.58061456308422	-0.342321972813266	-0.334425926406681
38208	61067.9931640625	1219	0.550251395504032	1959	9.6571480884546	1988	0.789678208936526	-328	-8.46622130868488	659	1.08547416680905	248	-2.38731978693102	131	0.237006237006237	-507	-0.700836820083682	-49	-0.530805687203792	1.69923134261982	0.769670834669492	-0.452717729567292	-0.45017048281135	0.660271835749299	0.578043346434901	-0.34000310210775	-0.338090051784578
41420	61166.015625	1211	0.636378748346716	1952	9.75267235709485	1981	0.873154284805689	-735	-2.80010536423462	277	7.34911296612762	153	-1.0462636612395	130	0.239085239085239	-497	-0.679916317991632	-50	-0.528436018957346	1.69416955219161	0.772658854181771	-0.452708884536269	-0.44503141565112	0.662170488937193	0.578994397897009	-0.339238858916952	-0.333485722910716
44632	61264.0380859375	1214	0.53953064808725	1960	9.71749625978419	1982	0.8620745730372	-620	-3.71998793422263	340	5.58702557711085	185	-1.5177619069616	133	0.232848232848233	-497	-0.679916317991632	-48	-0.533175355450237	1.69230533334331	0.773962265833612	-0.44981971732111	-0.445695673049288	0.662868680375374	0.579493160339586	-0.336796070145244	-0.333708251069356
47844	61362.060546875	1215	0.55217872088233	1959	9.70532158628515	1976	0.934237248935755	-565	-2.65723085377123	271	4.75359847995021	161	-1.17159512572923	128	0.243243243243243	-505	-0.696652719665272	-49	-0.530805687203792	1.68901243796949	0.775348322183582	-0.447477373052819	-0.445644454574332	0.664100535491657	0.579683965140894	-0.334553452300721	-0.333183083111816
51056	61460.0830078125	1210	0.565067709349696	1958	9.7654336602559	1974	0.95820474459325	-587	-0.420584896074047	123	5.11050617422994	147	-1.00199858989236	131	0.237006237006237	-499	-0.684100418410042	-44	-0.542654028436019	1.68571815050588	0.77507129408169	-0.449548223195473	-0.444039282172566	0.665331110002629	0.578628234752605	-0.33560950690602	-0.331496815797756
54268	61558.10546875	1204	0.59951865048677	1955	9.83737830747104	1994	0.716896379760193	-473	11.42211625628	-656	3.48484819267157	120	-0.825502949742869	131	0.237006237006237	-499	-0.684100418410042	-47	-0.535545023696683	1.7121940209275	0.781127006751885	-0.452361378615278	-0.430360061413843	0.655390342857061	0.58997768292256	-0.341664179694492	-0.325046797333431
57480	61656.1279296875	1213	0.575788456766478	1957	9.72918187446848	1982	0.861711994950408	-666	0.419216133134828	66	6.32845956521128	160	-1.21781481868229	129	0.241164241164241	-489	-0.663179916317992	-46	-0.537914691943128	1.69124006810825	0.776300356633857	-0.453093274170248	-0.438251344768994	0.663267387372395	0.580969605041532	-0.339087079237061	-0.327979638942057
60692	61754.150390625	1209	0.600241397503632	1955	9.77713011614545	1983	0.849419272771952	-684	-0.692873086205541	139	6.59635291549235	187	-1.60892269749206	128	0.243243243243243	-500	-0.686192468619247	-47	-0.535545023696683	1.6917794722093	0.779440466559339	-0.448887124827058	-0.437004471663914	0.663065522956067	0.583459017030922	-0.336019557421186	-0.327124662388481
63904	61852.1728515625	1214	0.600964144520494	1955	9.71688192481986	1972	0.981942165783711	-684	-0.738348981342212	142	6.59604215382981	188	-1.62332242637438	133	0.232848232848233	-505	-0.696652719665272	-45	-0.540284360189573	1.67768867981731	0.777112083052868	-0.449792417903515	-0.440208576892526	0.668322934270778	0.578071346509636	-0.334587653875948	-0.327458509961221
1580	61950.1953125	1218	0.539410190251106	1960	9.66930469327821	1979	0.898220355928814	-650	-0.37915876504655	119	6.07134031418315	131	-0.757879163951978	128	0.243243243243243	-496	-0.677824267782427	-48	-0.533175355450237	1.68372902037024	0.78133723373471	-0.444612824794518	-0.437985802518793	0.666073271781321	0.582788750940538	-0.331630621998644	-0.326687616766365
4792	62048.2177734375	1211	0.625537543093791	1953	9.75278076914738	1971	0.993744624569062	-303	15.4603989126588	-919	0.933965828553711	160	-1.51863847427277	133	0.232848232848233	-495	-0.675732217573222	-46	-0.537914691943128	1.69725152477548	0.780094262431796	-0.453711439070101	-0.430811875158903	0.661014960151553	0.585361455395183	-0.340452687699056	-0.323269479586247
8004	62146.240234375	1214	0.527966695817463	1961	9.71761189930689	1978	0.910382983644235	-788	-0.209095476169524	105	8.18066828998013	121	-0.608187961878937	132	0.234927234927235	-505	-0.696652719665272	-44	-0.542654028436019	1.68478626657109	0.779730989881863	-0.447607063238512	-0.437798470025702	0.66567888599813	0.581865138978119	-0.334021540042066	-0.326701991983811
11216	62244.2626953125	1214	0.612769012462568	1954	9.71676387614044	1974	0.957727731562121	-587	2.62595109844801	-78	5.14877618736305	194	-1.78246390868053	125	0.249480249480249	-503	-0.692468619246862	-46	-0.537914691943128	1.68466291404424	0.781335105292458	-0.446685384307054	-0.435875694073531	0.665724909922799	0.583030111295844	-0.333315407899518	-0.325249246713063
14428	62342.28515625	1214	0.564344962332835	1958	9.71724811664173	1976	0.93411558652125	-563	-3.30850712825988	314	4.72189977260567	197	-1.70970248450155	133	0.232848232848233	-488	-0.661087866108787	-52	-0.523696682464455	1.67723137401006	0.779384984344722	-0.446267338272092	-0.4397777949937	0.668493005122766	0.579642976388114	-0.331897243874055	-0.327070850940081
17640	62440.3076171875	1217	0.576149830274909	1957	9.68098548964906	1975	0.946045730612914	-707	-1.56383386997818	196	6.93638725269923	170	-1.33124628647061	132	0.234927234927235	-505	-0.696652719665272	-50	-0.528436018957346	1.67564615632798	0.781775610318151	-0.443866543742406	-0.437960485041578	0.669082272880105	0.581006519876065	-0.329876440842458	-0.325487126867115
20852	62538.330078125	1215	0.626260290110653	1953	9.70458077059287	1961	1.11421932480974	-220	10.4533302674258	-587	-0.380279290028991	195	-1.95432073884515	130	0.239085239085239	-506	-0.698744769874477	-45	-0.540284360189573	1.68104705283033	0.778864006438481	-0.450184783068875	-0.436697287108391	0.667072894046866	0.580247806187792	-0.33538426553991	-0.325336182848525
24064	62636.3525390625	1214	0.516161827875389	1962	9.71772994798631	1976	0.934597417865825	-503	-4.77556452495021	412	3.78732266958469	180	-1.42010414122176	126	0.247401247401247	-501	-0.688284518828452	-46	-0.537914691943128	1.67978555648382	0.779595773525262	-0.443329068438319	-0.442368361186875	0.667542663948882	0.5804648328068	-0.330090211271655	-0.329374895985165
27276	62734.375	1213	0.541096599957117	1960	9.72952879303657	1970	1.00663722677151	-385	-1.6624617870093	209	2.01332585743876	165	-1.2527274942047	130	0.239085239085239	-496	-0.677824267782427	-45	-0.540284360189573	1.67694554301472	0.776572887246465	-0.446567416111314	-0.444423327089561	0.668599287184925	0.577477369824503	-0.332077749739208	-0.330483356077924
30488	62832.3974609375	1216	0.528448527162038	1961	9.69351069545127	1972	0.982667321957295	-497	-3.97041727473772	359	3.70582431905679	193	-1.63522729443176	133	0.232848232848233	-504	-0.694560669456067	-45	-0.540284360189573	1.6757822623763	0.775996171745968	-0.445518590717325	-0.446478584884929	0.669031695116599	0.576746640658389	-0.331124507958518	-0.33183800814238
33700	62930.419921875	1217	0.564585878005122	1958	9.68110112917176	1971	0.994354141219949	-510	-0.381910787378086	122	3.93483591226393	152	-1.07931830599157	133	0.232848232848233	-504	-0.694560669456067	-44	-0.542654028436019	1.67775132737367	0.776203022308438	-0.447500957691158	-0.44413034238244	0.668299633084482	0.577411371406545	-0.332892470474712	-0.330385096048235
36912	63028.4423828125	1216	0.578318071325494	1957	9.69301200000964	1958	1.15084332531084	-111	9.25892092450849	-506	-2.06066114355649	180	-1.70079385021093	127	0.245322245322245	-481	-0.646443514644351	-42	-0.54739336492891	1.68513817555275	0.77243195865503	-0.452291897782637	-0.445848526350076	0.665547571711589	0.576508787630041	-0.337570514430268	-0.332761469165876
40124	63126.46484375	1214	0.529412189851186	1961	9.71759744436655	1966	1.05494684195691	-400	-6.80555572845772	548	2.19409933980542	191	-1.54790603178724	131	0.237006237006237	-493	-0.671548117154812	-46	-0.537914691943128	1.67676228923966	0.769784599558883	-0.448182347364497	-0.454493403464581	0.668667420228553	0.572382283064561	-0.333251191775891	-0.337943850866739
43336	63224.4873046875	1216	0.541217057793261	1960	9.69338301014496	1966	1.05482879327749	-414	-2.36858371796325	255	2.44980445486353	168	-1.2845327959408	128	0.243243243243243	-505	-0.696652719665272	-41	-0.549763033175355	1.68047407788908	0.770812699856345	-0.447624841386794	-0.453298779078015	0.667286297672222	0.574102311495344	-0.333391569924559	-0.337617526171022
46548	63322.509765625	1214	0.542060262646266	1960	9.7174709636386	1961	1.11506132508438	-399	-5.47139869322282	460	2.19334278727823	197	-1.66644465320229	130	0.239085239085239	-496	-0.677824267782427	-38	-0.556872037914692	1.67308397580523	0.767285610544921	-0.449410209391084	-0.45749672736072	0.670033814921104	0.56957957067824	-0.333610940444459	-0.339613810001931
49760	63420.5322265625	1215	0.541819346973979	1960	9.70542518002424	1962	1.10301554147002	-344	-5.33326202476116	452	1.35079074685099	175	-1.33240395730025	129	0.241164241164241	-493	-0.671548117154812	-39	-0.554502369668247	1.67490639438713	0.766626097402549	-0.449141659511291	-0.458864028305533	0.669357118329873	0.569557814275809	-0.333685668617586	-0.340908813171096
52972	63518.5546875	1219	0.530496310376479	1961	9.65734563930587	1952	1.22361069954684	-189	1.18639191076509	25	-0.950887230189014	180	-1.53934326993606	132	0.234927234927235	-493	-0.671548117154812	-40	-0.552132701421801	1.67865911850551	0.764054212114622	-0.451421123955923	-0.460912279936514	0.667961914884498	0.568605674606892	-0.335945550261886	-0.343008825437357
56184	63616.5771484375	1216	0.518932358106692	1962	9.69360585714182	1951	1.23577453184062	-529	-8.95183813119258	687	4.14133045289765	175	-1.26003243517162	132	0.234927234927235	-502	-0.690376569037657	-39	-0.554502369668247	1.66588820313506	0.762325868850929	-0.447690646815774	-0.467367472589128	0.672700293483671	0.564056400846218	-0.33125305758816	-0.345812237565255
59396	63714.599609375	1218	0.530737226048766	1961	9.66939142292023	1951	1.2356564831612	-593	-4.95465758829776	422	5.16162410864186	184	-1.47775926709504	130	0.239085239085239	-496	-0.677824267782427	-36	-0.561611374407583	1.66571985551288	0.764607134424367	-0.445944019176822	-0.465306202137669	0.67276257257205	0.565701046703936	-0.329935449280904	-0.344260723888328
62608	63812.6220703125	1218	0.59084568628443	1956	9.66879033831788	1952	1.22300720578776	-591	-3.86266162404033	350	5.1403583396757	172	-1.31588822495949	128	0.243243243243243	-487	-0.658995815899582	-37	-0.559241706161137	1.66431405416547	0.766203930516351	-0.447611810768688	-0.461058785537887	0.673282453334083	0.566519983221129	-0.330957628154382	-0.34090012468463
284	63910.64453125	1217	0.578920360506212	1957	9.68095778434675	1952	1.22312645904554	-591	-2.57409323461335	265	5.14492855904823	116	-0.484341772784769	132	0.234927234927235	-499	-0.684100418410042	-40	-0.552132701421801	1.66376363068792	0.76822371358603	-0.447552007715395	-0.457743952744335	0.673485915369462	0.567871011588135	-0.330830468865995	-0.338364355195301
3496	64008.6669921875	1222	0.518932358106692	1962	9.62131670051532	1945	1.30806368846713	-336	-0.677341716229154	145	1.27157337968085	146	-0.981554206704198	133	0.232848232848233	-503	-0.692468619246862	-37	-0.559241706161137	1.66303279291693	0.766282032367671	-0.447361837647491	-0.461171587467324	0.673755988058217	0.566247097474504	-0.330579775315947	-0.340784543824179
6708	64106.689453125	1212	0.592291180318153	1956	9.74106504000405	1946	1.29528190747393	-496	-5.1522584098131	437	3.6711375919285	145	-0.876746626047461	129	0.241164241164241	-501	-0.688284518828452	-37	-0.559241706161137	1.65779285603005	0.766157383898734	-0.447304611767054	-0.46143412031337	0.675689709338151	0.564800610541656	-0.329746763698256	-0.340162841675608
9920	64204.7119140625	1222	0.589882023595281	1956	9.62060720386043	1956	1.17482407133031	-587	-2.48200472728479	259	5.08871422961234	142	-0.884223959342853	126	0.247401247401247	-487	-0.658995815899582	-35	-0.563981042654028	1.66328230945644	0.769701268607612	-0.44673404523035	-0.456057726539042	0.673663792204892	0.568838449503401	-0.330153414049734	-0.337043968392843
13132	64302.734375	1217	0.591447975465148	1956	9.68083250819716	1948	1.27119395398029	-604	-1.95679080776131	224	5.35924930255895	177	-1.43055187521036	133	0.232848232848233	-504	-0.694560669456067	-37	-0.559241706161137	1.65778072376987	0.769580171487724	-0.447088527027744	-0.455914694491293	0.675694181192791	0.567320687757226	-0.329585636479449	-0.33609212869585
16344	64400.7568359375	1218	0.590604770612143	1956	9.6687927474746	1954	1.19891322940231	-664	-2.5814011179425	264	6.26835789833787	167	-1.26496720115615	128	0.243243243243243	-499	-0.684100418410042	-34	-0.566350710900474	1.65891396636414	0.772423054344952	-0.445184001739679	-0.452961179033547	0.675276369697182	0.569712050529582	-0.328352046287852	-0.334088218452184
19556	64498.779296875	1221	0.506284285311612	1963	9.63349137401435	1951	1.23590101256857	-563	-9.20471078262	703	4.65640025895642	162	-1.05595477393731	127	0.245322245322245	-495	-0.675732217573222	-35	-0.563981042654028	1.65006901989776	0.771164621456742	-0.441138081384328	-0.459023223558496	0.67853161601337	0.566475320436634	-0.324047329267952	-0.337185239595099
22768	64596.8017578125	1212	0.544108045860707	1960	9.74154687134862	1946	1.2957637388185	-410	-3.32233365590776	318	2.38108546367165	182	-1.47978725217272	127	0.245322245322245	-488	-0.661087866108787	-38	-0.556872037914692	1.65333516556066	0.771309223516819	-0.441786991386989	-0.458155362250747	0.677331103482196	0.567435466280758	-0.325013107339022	-0.337054962758543
25980	64694.82421875	1221	0.541939804810122	1960	9.63313481881937	1955	1.18735168628925	-607	-6.08063300799269	496	5.36579230381896	195	-1.62364147333678	132	0.234927234927235	-502	-0.690376569037657	-39	-0.554502369668247	1.65273410078476	0.772701448308546	-0.441049975617114	-0.456516583258504	0.677552168050053	0.568302379138119	-0.32438110606715	-0.335756404947512
29192	64792.8466796875	1218	0.590484312775999	1956	9.66879395205296	1955	1.18686624120959	-523	0.250638026299037	80	4.1448724873526	184	-1.58186517938697	131	0.237006237006237	-500	-0.686192468619247	-34	-0.566350710900474	1.65881423225818	0.773780402804192	-0.444803616288743	-0.451014003299942	0.675313149040185	0.570687125941789	-0.328056508627517	-0.33263686230611
32404	64890.869140625	1218	0.529773563359617	1961	9.66940105954713	1959	1.13928057761942	-688	0.124391003056479	85	6.66704778532038	195	-1.74774195355776	126	0.247401247401247	-486	-0.656903765690377	-41	-0.549763033175355	1.66561511275939	0.778351647573136	-0.440260571200239	-0.447592830781083	0.672801319054862	0.575842616006738	-0.32571498992137	-0.331139565756006
35616	64988.8916015625	1216	0.493756670352676	1964	9.69385761401936	1960	1.1275925537784	-515	-5.2037826906339	440	3.97324611447225	225	-2.1004558832357	130	0.239085239085239	-486	-0.656903765690377	-39	-0.554502369668247	1.66013640197713	0.775244238154602	-0.44153791506798	-0.451708579468569	0.674825430852755	0.572112724592966	-0.325845001056639	-0.333350721492554
38828	65086.9140625	1212	0.566633661219563	1958	9.74132161519503	1959	1.13891197664082	-468	-1.3847699094451	189	3.28943543586938	196	-1.73286798209279	130	0.239085239085239	-496	-0.677824267782427	-41	-0.549763033175355	1.66382485607204	0.775467828604967	-0.44359240649064	-0.449305490398838	0.673463286150226	0.573241849530795	-0.327912676908802	-0.332135906635755
42040	65184.9365234375	1217	0.516764117056107	1962	9.68157934678124	1968	1.03097693714269	-674	-5.0249244530007	425	6.40086182529267	197	-1.67537413800673	132	0.234927234927235	-504	-0.694560669456067	-36	-0.561611374407583	1.66375230505808	0.776685590941562	-0.442250619823969	-0.448524115392998	0.673490101311765	0.57412306964456	-0.326909995971137	-0.331547340316776
45252	65282.958984375	1215	0.529894021195761	1961	9.70554443328202	1961	1.11518298749889	-516	-2.82425760945779	283	4.00851419029412	197	-1.71938747487759	124	0.251559251559252	-503	-0.692468619246862	-38	-0.556872037914692	1.66519047040191	0.77764128082476	-0.440680502638112	-0.448413573558882	0.672958384025085	0.57520597119738	-0.325962706402191	-0.331682706971865
48464	65380.9814453125	1217	0.492913465499671	1964	9.68181785329681	1966	1.05531182920043	-674	6.04029710501423	-305	6.50546009192049	143	-1.06997924277389	131	0.237006237006237	-491	-0.667364016736402	-43	-0.545023696682465	1.67675490472626	0.781604488769953	-0.441136312145821	-0.441013806179631	0.668670165644364	0.581169169320906	-0.328010941301711	-0.327919850869618
51676	65479.00390625	1221	0.52953264768733	1961	9.6332588903906	1958	1.15133117954722	-424	-4.90300068002231	422	2.57877869486946	181	-1.43286466490537	132	0.234927234927235	-506	-0.698744769874477	-41	-0.549763033175355	1.65749317095243	0.774004444803123	-0.445254251630938	-0.45018415213064	0.675800163596161	0.570506983061362	-0.328190182238326	-0.331823937418624
54888	65577.0263671875	1213	0.530014479031904	1961	9.72963961424582	1962	1.10313359014944	-502	-1.3647504553541	187	3.80453307698313	165	-1.2586817208378	128	0.243243243243243	-498	-0.682008368200837	-40	-0.552132701421801	1.66620849767949	0.776825519391031	-0.442362359634468	-0.448171457370369	0.672581789477155	0.574868591742816	-0.327358229583455	-0.33165709432383
58100	65675.048828125	1217	0.540132937267968	1960	9.68134565857913	1974	0.958454092314067	-653	-4.12410660105258	366	6.08404442497602	164	-1.18818535113878	126	0.247401247401247	-499	-0.684100418410042	-42	-0.54739336492891	1.66962362553507	0.779926929282515	-0.44092770613538	-0.444180979941891	0.671317173313309	0.578058591556785	-0.326802472407841	-0.329213701978118
61312	65773.0712890625	1213	0.565549540694271	1958	9.7292842636292	1967	1.04253727567739	-633	-0.358888473570156	118	5.81586091319548	158	-1.17163423297808	128	0.243243243243243	-492	-0.669456066945607	-44	-0.542654028436019	1.66902522173278	0.780672723618026	-0.442753082508058	-0.441043996136923	0.671538902791625	0.578454520755485	-0.328066441169174	-0.32680006063885
64524	65871.09375	1217	0.55254009439076	1959	9.6812215870079	1971	0.994474599056092	-532	-6.133356599103	501	4.21179599517406	148	-0.903052402616838	132	0.234927234927235	-505	-0.696652719665272	-43	-0.545023696682465	1.66362116150466	0.778920899792228	-0.44373835488519	-0.443146143242443	0.673538570274734	0.57574100164773	-0.327990127083844	-0.327552392617516
2200	65969.1162109375	1221	0.542421636154697	1960	9.63313000050592	1951	1.23553963906014	-472	-4.14452147564443	371	3.31461229040852	145	-0.896901364730835	123	0.253638253638254	-495	-0.675732217573222	-42	-0.54739336492891	1.6531049759226	0.776936798309137	-0.439991376443281	-0.450307450625342	0.677415771757758	0.571514979313777	-0.32365780968733	-0.331246317447023
5412	66067.138671875	1216	0.529653105523474	1961	9.69349864966766	1962	1.10313720388452	-473	-8.16162469127359	636	3.29045227138129	155	-0.969651768268833	126	0.247401247401247	-493	-0.671548117154812	-45	-0.540284360189573	1.65365467096675	0.777683757574594	-0.438332839170311	-0.45063543503541	0.677213568240995	0.572209215064541	-0.322519388370532	-0.331571472401681
8624	66165.1611328125	1220	0.553383299243766	1959	9.64506857664612	1961	1.11494809471841	-452	-0.0156033299389951	99	3.05427201544581	166	-1.30097391013117	130	0.239085239085239	-489	-0.663179916317992	-39	-0.554502369668247	1.66072556084133	0.777638870220562	-0.442642987808834	-0.446480652286026	0.674608008613829	0.574034470620399	-0.326748498449682	-0.329581370854786
11836	66263.18359375	1215	0.542301178318553	1960	9.70542036171079	1958	1.15120349424091	-399	-6.24448584932135	511	2.18790677777163	213	-1.89593085864125	131	0.237006237006237	-503	-0.692468619246862	-42	-0.54739336492891	1.65675818119485	0.775168215532067	-0.442236191378825	-0.451155614686976	0.676070992879077	0.571172226877588	-0.325855762884098	-0.332427919444831
15048	66361.2060546875	1217	0.54085568428483	1960	9.68133843110896	1968	1.0307360214704	-413	-6.15764726263543	505	2.39418848046783	157	-1.04034981041171	130	0.239085239085239	-502	-0.690376569037657	-39	-0.554502369668247	1.66117040465919	0.775202560367972	-0.443159488328885	-0.450189580402547	0.674443805378891	0.572352347911701	-0.327196253743004	-0.332386754794092
18260	66459.228515625	1221	0.567115492564138	1958	9.63288306194183	1946	1.29553366435147	117	7.64633424867227	-395	-5.57323153609965	105	-0.520348607814841	124	0.251559251559252	-485	-0.654811715481171	-40	-0.552132701421801	1.67159970786819	0.770509823066985	-0.44997937466317	-0.451478875402855	0.670584539093403	0.571589704997749	-0.333809602835437	-0.334921982145578
21472	66557.2509765625	1220	0.543023925335415	1960	9.6451721703852	1947	1.28372638725267	-432	-12.5597453736249	927	2.60825109483056	85	0.189957920332266	133	0.232848232848233	-480	-0.644351464435146	-41	-0.549763033175355	1.64655230530101	0.762584986061766	-0.448859782786051	-0.465820817944449	0.679822205027655	0.559262260947363	-0.32918342421829	-0.341622256668533
24684	66655.2734375	1218	0.506645658820043	1963	9.66963233859252	1951	1.23589739883349	-491	-3.42286064117095	323	3.61725886267143	177	-1.40123047854217	129	0.241164241164241	-494	-0.673640167364017	-36	-0.561611374407583	1.65903255194746	0.767606157863588	-0.443312268834291	-0.462876893688693	0.675232636234563	0.566190010475191	-0.326989271208625	-0.34142023302124
27896	66753.2958984375	1218	0.592050264645866	1956	9.66877829253426	1942	1.34347708771499	-350	-6.29020579620343	515	1.44176343054759	234	-2.21651064218983	131	0.237006237006237	-497	-0.679916317991632	-34	-0.566350710900474	1.65128607960991	0.763384065113682	-0.44781885416586	-0.465513740918661	0.678084481902054	0.561075050420769	-0.329139679046174	-0.34214513715138
31108	66851.318359375	1217	0.615900916202302	1954	9.68058797878978	1945	1.30709400288617	-497	-1.54523620080662	199	3.73239827562509	205	-1.86744187733108	125	0.249480249480249	-486	-0.656903765690377	-32	-0.571090047393365	1.65847352579636	0.766577281069737	-0.447093220779002	-0.460941345597451	0.675438780049641	0.56528640289669	-0.329693724005194	-0.339905553730387
34320	66949.3408203125	1218	0.581088601556797	1957	9.66888790916516	1933	1.45202043928564	-265	6.34698000551102	-317	0.267737141065342	209	-2.08652318859767	134	0.230769230769231	-489	-0.663179916317992	-35	-0.563981042654028	1.66073352595363	0.763395489358726	-0.451264970154246	-0.462155010292477	0.674605068780498	0.563522397495105	-0.333114252614323	-0.341153049821088
37532	67047.36328125	1219	0.507850237181479	1963	9.65757210003782	1940	1.3684154735318	-633	-6.02784734614109	492	5.75864990256666	162	-1.11949204266689	131	0.237006237006237	-497	-0.679916317991632	-28	-0.580568720379147	1.65286243443721	0.76323725129209	-0.445467141099363	-0.468004192759911	0.677504973576844	0.561374883145549	-0.327649186221564	-0.344225597712181
40744	67145.3857421875	1217	0.556394745147356	1959	9.68118304050033	1939	1.37997822122323	-559	-2.76160150629214	278	4.66588489617144	194	-1.67471285658573	129	0.241164241164241	-494	-0.673640167364017	-28	-0.580568720379147	1.65331728777941	0.764264614325858	-0.445731910402178	-0.466071521698734	0.677337679603089	0.562248272764056	-0.327912599957944	-0.34287588768031
43956	67243.408203125	1219	0.556394745147356	1959	9.65708665495817	1937	1.40407460676539	-587	-6.40794238154874	518	5.05448717931717	180	-1.38745658408978	123	0.253638253638254	-486	-0.656903765690377	-35	-0.563981042654028	1.64847711327489	0.766304117889532	-0.441643706766302	-0.466614225221721	0.679116085390766	0.562490891101829	-0.324180121663269	-0.342509253465335
47168	67341.4306640625	1220	0.556033371638925	1959	9.64504207592217	1939	1.37998183495831	-620	-3.12874313417344	301	5.58815731510013	153	-1.03969090584072	132	0.234927234927235	-485	-0.654811715481171	-30	-0.575829383886256	1.64597467417686	0.766038906737589	-0.445050638280706	-0.463804185761854	0.680033987350941	0.561644856818509	-0.326302489097696	-0.340052226085267
50380	67439.453125	1217	0.617707783744456	1954	9.68056991011436	1930	1.48779882577701	-298	10.7175425728939	-606	0.81177372037313	177	-1.68403854282346	122	0.255717255717256	-495	-0.675732217573222	-31	-0.57345971563981	1.66208707171585	0.769589460732512	-0.446636182861547	-0.456342176538952	0.674105334905875	0.568445885444675	-0.329901217977576	-0.337070406813428
53592	67537.4755859375	1217	0.581329517229084	1957	9.68093369277952	1932	1.4640662229	-564	-3.17224729556872	305	4.73122469353598	149	-0.977583835472582	124	0.251559251559252	-488	-0.661087866108787	-30	-0.575829383886256	1.64158422912474	0.765163953388487	-0.445930225320762	-0.464403228434381	0.681641842060941	0.559859750598097	-0.326280901794493	-0.339797339507206
56804	67635.498046875	1220	0.545553539894431	1960	9.64514687423961	1926	1.53671313929985	-398	-0.165849537161368	110	2.22819547541225	171	-1.37451521991201	125	0.249480249480249	-482	-0.648535564853556	-29	-0.578199052132702	1.64382358110636	0.765349456643611	-0.443058360448605	-0.466839906661719	0.68082216370935	0.560579258069739	-0.324517545319861	-0.341936309279481
60016	67733.5205078125	1222	0.617225952399881	1954	9.62033376457239	1929	1.49985183686154	-513	-2.11096366690792	236	3.97147018590557	207	-1.88674582157917	133	0.232848232848233	-492	-0.669456066945607	-29	-0.578199052132702	1.63875293275521	0.763268686256062	-0.44744503078059	-0.466062074203321	0.682676968643967	0.55773592321936	-0.326957167018648	-0.340561018569173
63228	67831.54296875	1218	0.605662000130095	1955	9.66864217517942	1929	1.49996747638424	-747	-0.575352776171658	130	7.54265396928637	71	0.164599523374015	130	0.239085239085239	-497	-0.679916317991632	-27	-0.582938388625592	1.63844493304797	0.767176831673741	-0.445095615112274	-0.461876176427045	0.682789491367556	0.560511022811081	-0.325193603580309	-0.337453736052461
904	67929.5654296875	1217	0.570729227648446	1958	9.68103969567532	1920	1.60875053904882	-634	14.3286567823239	-851	5.97468059271742	117	-0.837706019908573	119	0.261954261954262	-470	-0.623430962343096	-30	-0.575829383886256	1.65162426461147	0.774002004871231	-0.440287422115298	-0.455047121057128	0.677960191931223	0.56896780409484	-0.323654675511074	-0.334504509805019
4116	68027.587890625	1219	0.557358407836505	1959	9.65707701833127	1929	1.50045051230718	-725	-1.99363160102514	224	7.20128896575062	132	-0.740898954017464	127	0.245322245322245	-482	-0.648535564853556	-29	-0.578199052132702	1.6306185711903	0.769038371670287	-0.44313703204913	-0.460662081927091	0.685643285611204	0.559812018105373	-0.322576148794571	-0.335333293172517
7328	68125.6103515625	1219	0.593375300843446	1956	9.6567168494012	1930	1.48804215060602	-455	-0.031766540277701	100	3.10439735954909	195	-1.74461880269108	132	0.234927234927235	-499	-0.684100418410042	-29	-0.578199052132702	1.63604060344059	0.769625258022727	-0.443077564272979	-0.459738223613586	0.683667317601422	0.561667746018196	-0.32335526185276	-0.335514107838477
10540	68223.6328125	1217	0.569404191450867	1958	9.6810529460373	1931	1.47623366892886	-603	-1.15326955593393	171	5.35905087128717	222	-2.13553840557452	128	0.243243243243243	-495	-0.675732217573222	-26	-0.585308056872038	1.63702004295024	0.77066259659816	-0.440924989597194	-0.460069903116141	0.683309841191699	0.562682743824873	-0.321931911659737	-0.335910159101202
13752	68321.6552734375	1228	0.544469419369138	1960	9.54877217327619	1927	1.52467578773402	-680	2.11266662006691	-46	6.55587457579335	135	-0.86895265879448	129	0.241164241164241	-490	-0.665271966527197	-28	-0.580568720379147	1.6344407541256	0.771239858265484	-0.440702013123505	-0.459315595915843	0.684250878866909	0.562424113780072	-0.321380484314595	-0.334954377953595
16964	68419.677734375	1217	0.581570432901372	1957	9.68093128362279	1930	1.48816019928544	-382	12.3136379648377	-713	2.11676761621196	209	-2.2058563477842	128	0.243243243243243	-486	-0.656903765690377	-26	-0.585308056872038	1.65296560237883	0.772878830043502	-0.444908413459432	-0.452454216140814	0.677467031726528	0.5684934498366	-0.327253780278397	-0.332804119130198
20176	68517.7001953125	1219	0.568440528761718	1958	9.65696619712202	1937	1.40395414892925	-642	2.50309449028496	-71	5.98536038569131	176	-1.50444033438623	123	0.253638253638254	-482	-0.648535564853556	-33	-0.56872037914692	1.64891309148222	0.773689406301118	-0.44167743814788	-0.454230935988016	0.678956058521447	0.56802644431606	-0.324270259722444	-0.333486773072358
23388	68615.72265625	1220	0.58084768588451	1957	9.64479393277971	1933	1.45202284844236	-568	2.26793518014993	-54	4.85672795429839	207	-1.97432379852033	131	0.237006237006237	-497	-0.679916317991632	-29	-0.578199052132702	1.64150944138736	0.770636373276608	-0.444781289246719	-0.456387099860528	0.681669202154482	0.563844200284932	-0.325428903998801	-0.333920417287199
26600	68713.7451171875	1217	0.568440528761718	1958	9.68106258266419	1939	1.37985776338708	-595	0.819784164050357	41	5.25093734023534	183	-1.57793885535694	126	0.247401247401247	-494	-0.673640167364017	-31	-0.57345971563981	1.64741025669636	0.77383278993108	-0.441111555364715	-0.454536477030395	0.67950754159254	0.567736759656869	-0.323629663085573	-0.333479105528816
29812	68811.767578125	1213	0.581329517229084	1957	9.72912646386385	1936	1.41587345181566	-515	6.01301191919551	-300	4.07954351869643	172	-1.5134016958242	128	0.243243243243243	-481	-0.646443514644351	-34	-0.566350710900474	1.65087216713951	0.773511374660451	-0.444266706533933	-0.452003591508288	0.678236576894746	0.568409898617922	-0.326466554846879	-0.33215195540847
33024	68909.7900390625	1216	0.579040818342356	1957	9.69300477253947	1952	1.22312525446718	-657	7.30334458461962	-388	6.27000545670856	218	-2.24343370124536	130	0.239085239085239	-496	-0.677824267782427	-36	-0.561611374407583	1.66491885407283	0.778562764857637	-0.442931928527824	-0.444579945417981	0.67305883244886	0.575816414138603	-0.327587557875343	-0.328806412949029
36236	69007.8125	1217	0.579763565359217	1957	9.68094935229822	1945	1.3074553763946	-754	2.0142543998699	-41	7.6863097214838	138	-0.912912154745714	131	0.237006237006237	-496	-0.677824267782427	-30	-0.575829383886256	1.64755424469684	0.774062316388105	-0.446918439072674	-0.448432201302188	0.679454720099813	0.567943022010989	-0.327911853484551	-0.329022527233982
39448	69105.8349609375	1216	0.555431082458207	1959	9.69324086989831	1948	1.27155412291036	-458	-0.33583865109488	120	3.14729944376767	196	-1.75384660725979	120	0.25987525987526	-475	-0.633891213389121	-36	-0.561611374407583	1.65597792774362	0.7768045949552	-0.440348220136457	-0.450186701579625	0.676358401030218	0.572173042571036	-0.32434846876871	-0.331595225415329
42660	69203.857421875	1216	0.579763565359217	1957	9.6929975450693	1946	1.29540718362352	-513	-1.21662786527739	177	3.97875530146799	195	-1.72092157619108	128	0.243243243243243	-486	-0.656903765690377	-34	-0.566350710900474	1.64931565459204	0.773327753759393	-0.444622944421454	-0.45196750166295	0.678808268096331	0.567866599145838	-0.326493544455637	-0.331886767086901
45872	69301.8798828125	1207	0.543023925335415	1960	9.8017986764093	1960	1.12709988122857	-311	2.37679161709163	-56	0.929976452877407	207	-1.97650092725916	130	0.239085239085239	-498	-0.682008368200837	-35	-0.563981042654028	1.66754848678711	0.775359479545966	-0.444647833008265	-0.448448416296972	0.67208582731368	0.574132957276181	-0.329249828042305	-0.332064058319334
49084	69399.90234375	1215	0.530616768212622	1961	9.70553720581185	1955	1.18746491665522	-609	-1.8824756883834	219	5.43366919782373	159	-1.15647173546687	125	0.249480249480249	-485	-0.654811715481171	-32	-0.571090047393365	1.66161483100005	0.773723626737885	-0.444634385595814	-0.451278198646253	0.674279722926596	0.571376356572973	-0.3283518383947	-0.33325813511788
52296	69497.9248046875	1214	0.579402191850786	1957	9.71709754434655	1951	1.23516983350318	-607	-2.92783761187487	288	5.39733844698796	191	-1.6254603941189	126	0.247401247401247	-491	-0.667364016736402	-31	-0.57345971563981	1.65558212154325	0.772482449372158	-0.44531875478148	-0.452727370557451	0.676504157801204	0.568886057651433	-0.327950014931449	-0.333406007135378
55508	69595.947265625	1215	0.544228503696851	1960	9.70540108845701	1942	1.34395530532448	-433	-2.75323259028548	280	2.73136875017469	136	-0.78694392137249	124	0.251559251559252	-484	-0.652719665271966	-33	-0.56872037914692	1.65101327414266	0.7705019278864	-0.443656049407683	-0.457707427236339	0.678184729416231	0.56623529447882	-0.326039046356166	-0.336365284065224
58720	69693.9697265625	1218	0.604216506096371	1955	9.66865663011976	1941	1.35540361807157	-472	-3.29573503854738	315	3.32526011414896	158	-1.11289730167853	130	0.239085239085239	-499	-0.684100418410042	-33	-0.56872037914692	1.64639113155723	0.768768441741106	-0.446156478389752	-0.458191531756978	0.679881303375472	0.563754946279352	-0.327176439419327	-0.336002010938812
61932	69791.9921875	1211	0.506645658820043	1963	9.75396968799011	1958	1.1515600494359	-529	-11.5742089684187	860	4.11978741426487	209	-1.72809940911907	128	0.243243243243243	-497	-0.679916317991632	-32	-0.571090047393365	1.64807508484531	0.770208132034797	-0.440850903333253	-0.460901198064969	0.679263622311661	0.565251404002755	-0.323537991486366	-0.33825278970309
65144	69890.0146484375	1218	0.519655105123554	1962	9.66950224412949	1943	1.33215284653913	-241	-3.8619307313561	357	-0.20243250435996	214	-1.95889120778562	123	0.253638253638254	-480	-0.644351464435146	-32	-0.571090047393365	1.65298441903801	0.76826129545954	-0.44243446825301	-0.462629790653937	0.677460111370177	0.565101904521226	-0.325436882104103	-0.34029174361884
2820	69988.037109375	1215	0.555671998130494	1959	9.70528665351267	1947	1.28359990652472	-670	-3.26522931445105	309	6.34818494632439	135	-0.761394740104121	129	0.241164241164241	-481	-0.646443514644351	-34	-0.566350710900474	1.65241245585596	0.769810555195393	-0.443842598744396	-0.458688845133149	0.677670440144	0.566092310145726	-0.326386641971314	-0.337304062963377
6032	70086.0595703125	1218	0.567958697417143	1958	9.66901920820655	1942	1.34371800338727	-418	-3.931131950366	358	2.49959327330329	198	-1.71255923484449	129	0.241164241164241	-497	-0.679916317991632	-30	-0.575829383886256	1.64937398049819	0.76744673826013	-0.445637733120126	-0.460904019025049	0.67878685299759	0.563563270159306	-0.327247541312022	-0.338458114735359
9244	70184.08203125	1218	0.544108045860707	1960	9.66925771472212	1940	1.36805289544501	-594	-1.96881274883995	225	5.20231118365895	151	-1.03227101997727	127	0.245322245322245	-476	-0.635983263598326	-29	-0.578199052132702	1.64977058528942	0.768035756984951	-0.444679021669317	-0.460848829530651	0.678641219192939	0.564099177840045	-0.326603375227089	-0.338479613068173
12456	70282.1044921875	1213	0.531821346574059	1961	9.7296215455704	1947	1.28383841304028	-393	-4.09026221346082	369	2.11771952689173	210	-1.89308759100329	127	0.245322245322245	-482	-0.648535564853556	-30	-0.575829383886256	1.65516618471425	0.767698261221315	-0.444518362684165	-0.461565602005131	0.676657299182609	0.565254774967976	-0.327298028093013	-0.339849878100942
15668	70380.126953125	1217	0.544710335041425	1960	9.68129988460139	1936	1.41623964363754	-375	-2.69018450179543	277	1.85306984416807	185	-1.53835797561014	129	0.241164241164241	-488	-0.661087866108787	-32	-0.571090047393365	1.65052588192333	0.764504254961309	-0.446134670324125	-0.465292488743197	0.678363799468794	0.5617012887567	-0.327786820876215	-0.341862571568151
18880	70478.1494140625	1218	0.580004481031505	1957	9.66889875037041	1942	1.34359754555113	-709	-3.01950230143482	292	6.94843223365734	146	-0.934710995000085	132	0.234927234927235	-495	-0.675732217573222	-28	-0.580568720379147	1.64917466444742	0.766437390349162	-0.446356440441859	-0.461887058436194	0.67886003203779	0.562770220660751	-0.327745117401405	-0.33914874857301
22092	70576.171875	1220	0.556033371638925	1959	9.64504207592217	1939	1.37998183495831	-529	-1.02440435801003	164	4.22203718491626	174	-1.40327186385021	125	0.249480249480249	-488	-0.661087866108787	-31	-0.57345971563981	1.6526020638706	0.768652723393046	-0.443557777976961	-0.460900735968814	0.677600721479531	0.565290260528565	-0.326205689827308	-0.338960221156195
25304	70674.1943359375	1219	0.580245396703792	1957	9.6568481484426	1939	1.37973971470766	-612	-1.35282101421171	184	5.48216653836003	141	-0.891498386819256	126	0.247401247401247	-487	-0.658995815899582	-32	-0.571090047393365	1.64902389192296	0.769244266873575	-0.444553962620642	-0.458949923412588	0.67891538380619	0.564791850429933	-0.326398864413944	-0.3369686166819
28516	70772.216796875	1218	0.506886574492331	1963	9.6696299294358	1949	1.25999137521893	-536	-9.52994824825801	725	4.2414997385523	169	-1.15661475211996	130	0.239085239085239	-492	-0.669456066945607	-30	-0.575829383886256	1.64565754479206	0.768335593126923	-0.442371438628536	-0.462566672621384	0.680150235356051	0.563245886465997	-0.324290447203593	-0.339095022931235
31728	70870.2392578125	1219	0.544589877205282	1960	9.65720470363759	1935	1.42828904098698	-335	-3.54191342035602	334	1.23151092077273	175	-1.36823092938835	130	0.239085239085239	-499	-0.684100418410042	-32	-0.571090047393365	1.64496731986226	0.766188379947306	-0.443832949501081	-0.464723228783427	0.680403187391029	0.561491943435582	-0.325257641460508	-0.340566831498033
34940	70968.26171875	1217	0.555792455966638	1959	9.68118906339214	1944	1.31974328025961	-747	-4.59239222072744	395	7.5153053965906	160	-1.11758265160505	127	0.245322245322245	-498	-0.682008368200837	-31	-0.57345971563981	1.64635331408742	0.770624976682753	-0.440550965845312	-0.460491033360552	0.67989516944855	0.565106477501014	-0.323060129117777	-0.337682366464891
38152	71066.2841796875	1215	0.556153829475069	1959	9.70528183519923	1943	1.33178785929561	-546	0.455840094081934	66	4.497261517856	176	-1.46349524646217	127	0.245322245322245	-468	-0.619246861924686	-35	-0.563981042654028	1.65203440299703	0.771682319884331	-0.442978783747602	-0.456372867650382	0.677809431596821	0.567369880966202	-0.325694671666318	-0.335542506188056
41364	71164.306640625	1216	0.639992483431025	1952	9.69239525588858	1946	1.2948048944428	-770	3.73730481208862	-155	7.94979881339809	147	-1.08515638405561	132	0.234927234927235	-501	-0.688284518828452	-34	-0.566350710900474	1.65371644224732	0.774807881772658	-0.44578191253272	-0.448275844544001	0.677190842680631	0.570109390200485	-0.328009639931626	-0.329844693616031
44576	71262.3291015625	1221	0.542662551826984	1960	9.6331275913492	1949	1.25963361544559	-788	-5.54464812455124	457	8.12991987219504	145	-0.868898831752698	129	0.241164241164241	-500	-0.686192468619247	-31	-0.57345971563981	1.64432620701671	0.775265278741689	-0.441077051975108	-0.452122529629434	0.680638068349937	0.567974719152445	-0.323141796220725	-0.33123393221681
47788	71360.3515625	1217	0.568320070925574	1958	9.68106378724255	1940	1.36781077519436	-465	-2.3083908448498	250	3.23033666335092	171	-1.33166439375824	121	0.257796257796258	-486	-0.656903765690377	-34	-0.566350710900474	1.64360968517501	0.775152846160515	-0.43958413895418	-0.453766294329101	0.680900493720128	0.56770329443558	-0.321940847023917	-0.332327516399407
51000	71458.3740234375	1216	0.542783009663128	1960	9.69336735062626	1953	1.21143963978289	-835	-1.58767773537727	195	8.88661569548589	132	-0.749018031330422	126	0.247401247401247	-479	-0.642259414225941	-35	-0.563981042654028	1.64761237971474	0.779620839159082	-0.43782552007422	-0.447772443458312	0.679433392474489	0.57203680442835	-0.321248867168021	-0.328547294789155
54212	71556.396484375	1219	0.602650554226504	1955	9.65662409686737	1953	1.21084096433725	-568	2.32861154373868	-58	4.85505046618924	192	-1.74589862401623	132	0.234927234927235	-500	-0.686192468619247	-40	-0.552132701421801	1.65219685718734	0.780473913185025	-0.441295223313191	-0.442853245125983	0.67774970814381	0.573876759461763	-0.324481149776612	-0.325626751819155
57424	71654.4189453125	1217	0.566633661219563	1958	9.68108065133961	1954	1.19915294049624	-620	1.87314002468049	-29	5.64560640697017	195	-1.78271693399024	129	0.241164241164241	-482	-0.648535564853556	-35	-0.563981042654028	1.65386318597086	0.779826667605959	-0.44251948804265	-0.442771804875892	0.677136853297401	0.573840995577539	-0.3256311102574	-0.325816779392354
60636	71752.44140625	1222	0.482072260246746	1965	9.62168530149392	1951	1.23614313281922	-502	2.63677627581317	-77	3.849482146273	192	-1.75206191865772	128	0.243243243243243	-489	-0.663179916317992	-37	-0.559241706161137	1.65784893868968	0.779492918299044	-0.438900342084751	-0.446942143951013	0.675669037392594	0.574646150788672	-0.323559568327053	-0.329488025634833
63848	71850.4638671875	1216	0.591086601956717	1956	9.69288431470333	1952	1.22300479663104	-692	-1.07413272128735	164	6.70845534878215	146	-0.973618386603034	129	0.241164241164241	-487	-0.658995815899582	-42	-0.54739336492891	1.65045679015043	0.77883151264762	-0.441896593313392	-0.445139164447523	0.678389180831094	0.572209648019591	-0.324662638856675	-0.327044964760557
1524	71948.486328125	1220	0.505320622622463	1963	9.64554920341233	1960	1.1274769142557	-534	-2.23862395458557	244	4.2902031871316	201	-1.79233713511527	130	0.239085239085239	-505	-0.696652719665272	-41	-0.549763033175355	1.65666510248822	0.78085987091999	-0.437893965228129	-0.445540948963845	0.676105284040643	0.575341476729045	-0.322642474005305	-0.328276810048014
4736	72046.5087890625	1216	0.542301178318553	1960	9.69337216893971	1957	1.163251687012	-611	-0.44320260570653	124	5.48335648302208	188	-1.62922535388709	120	0.25987525987526	-490	-0.665271966527197	-41	-0.549763033175355	1.65849688915825	0.783015168330053	-0.436469109191705	-0.44315004556748	0.675430165744347	0.577414143207779	-0.321862777266607	-0.326789459800064
7948	72144.53125	1217	0.529050816342756	1961	9.68145647978838	1966	1.05495045569199	-464	-1.97476166589412	228	3.22565151787156	218	-2.05787157623509	124	0.251559251559252	-492	-0.669456066945607	-43	-0.545023696682465	1.66279274340517	0.783119159351268	-0.437568030434552	-0.441880754274941	0.673844675966594	0.578625625172379	-0.32330721594831	-0.326493771274587
11160	72242.5537109375	1220	0.530616768212623	1961	9.64529624195643	1950	1.24770588051064	-277	9.28392603911819	-511	0.479258990118183	197	-1.96155114784911	132	0.234927234927235	-495	-0.675732217573222	-41	-0.549763033175355	1.66507945017454	0.778214210657343	-0.444789711739281	-0.443333683202457	0.67299944272831	0.57560068427973	-0.32898559153971	-0.327908650241736
14372	72340.576171875	1214	0.530375852540335	1961	9.71758780773966	1958	1.15132274749869	-490	-7.30290046591541	579	3.5622458548975	176	-1.30832043526222	131	0.237006237006237	-506	-0.698744769874477	-40	-0.552132701421801	1.65538590408055	0.775249708700246	-0.442509817084861	-0.450747103089644	0.676576405622909	0.57087251800613	-0.325852032818166	-0.331917743195499
17584	72438.5986328125	1219	0.493756670352677	1964	9.65771303570611	1957	1.16373713209165	-402	-3.24409461423535	313	2.25930924421151	180	-1.45073353943605	126	0.247401247401247	-499	-0.684100418410042	-42	-0.54739336492891	1.66137979525843	0.776612753915462	-0.439069278689501	-0.451764096589053	0.674366502401699	0.573448365067079	-0.324207346256232	-0.333581159051115
20796	72536.62109375	1216	0.578077155653207	1957	9.69301440916636	1960	1.1267493489254	-438	-3.3612640612486	320	2.8115353850496	201	-1.76988433298201	126	0.247401247401247	-490	-0.665271966527197	-42	-0.54739336492891	1.66185733402468	0.775869802853494	-0.442626118629404	-0.449564420441775	0.674190176634077	0.573024685116543	-0.326904966940523	-0.332029303777264
24008	72634.6435546875	1219	0.541337515629404	1960	9.65723722725334	1962	1.10302035978347	-490	0.821618988916688	43	3.64312575125473	163	-1.2717906161531	127	0.245322245322245	-505	-0.696652719665272	-42	-0.54739336492891	1.66943584262708	0.778341986284889	-0.441932523736308	-0.445958963190731	0.671386759901111	0.576834816877638	-0.327519356393038	-0.330503379491223
27220	72732.666015625	1213	0.614816795677009	1954	9.72879159107938	1958	1.15047833806733	-184	13.2381474671855	-770	-0.900702649753552	204	-2.14780030390587	128	0.243243243243243	-505	-0.696652719665272	-38	-0.556872037914692	1.68464589687611	0.777090049291725	-0.450430518587482	-0.439594589612743	0.665731258980781	0.57985806040661	-0.336107465401387	-0.328021786317318
30432	72830.6884765625	1218	0.565790456366558	1958	9.66904089061706	1960	1.12687221591826	-565	-1.42940617488007	190	4.76321353478574	142	-0.905275930390947	123	0.253638253638254	-491	-0.667364016736402	-44	-0.542654028436019	1.66963190999914	0.775545858889575	-0.444889591202283	-0.447886003799066	0.671314103208639	0.574813629369917	-0.329740140646273	-0.331961000676797
33644	72928.7109375	1216	0.553383299243766	1959	9.69326134773046	1965	1.06675532363407	-473	3.2065929703518	-114	3.40594881412632	152	-1.15108838114617	128	0.243243243243243	-492	-0.669456066945607	-42	-0.54739336492891	1.6777947683652	0.777116096855217	-0.445952573300775	-0.444091065407682	0.668283475219531	0.578101880761932	-0.33174711268892	-0.330362324472069
36856	73026.7333984375	1215	0.541578431301691	1960	9.70542758918096	1964	1.07892156508457	-498	-1.36360761584914	187	3.74739110173544	191	-1.65674499403942	128	0.243243243243243	-496	-0.677824267782427	-47	-0.535545023696683	1.67426485693522	0.77673914714739	-0.44400709509705	-0.446692284231801	0.669595396067143	0.576904409212612	-0.329775641956367	-0.331770001912469
40068	73124.755859375	1213	0.589761565759137	1956	9.72904214337855	1966	1.05434334819783	-322	3.16171755542561	-108	1.10150852344346	177	-1.5329220424741	133	0.232848232848233	-502	-0.690376569037657	-41	-0.549763033175355	1.6790946394003	0.774505758630744	-0.45024955756254	-0.444315389968155	0.667799842712569	0.576496310656322	-0.335139159285706	-0.330722115659035
43280	73222.7783203125	1205	0.636740121855147	1952	9.82495789998627	1984	0.837006092757352	-469	5.58739813150304	-271	3.37721289119139	205	-2.01009456397727	125	0.249480249480249	-505	-0.696652719665272	-40	-0.552132701421801	1.69734823081171	0.779211353816454	-0.4505918926464	-0.435656530267669	0.660978676593001	0.584723849376913	-0.338126266610194	-0.326918700730721
46492	73320.80078125	1213	0.565067709349696	1958	9.72928908194265	1971	0.994349322906503	-549	1.62198893279931	-11	4.55852789005254	199	-1.83893089929285	126	0.247401247401247	-493	-0.671548117154812	-44	-0.542654028436019	1.68470116025863	0.776287198931627	-0.448890897984398	-0.442577842285004	0.665710640190968	0.579273260018613	-0.334966870799846	-0.330256005593387
49704	73418.8232421875	1209	0.504718333441745	1963	9.77808534678607	1976	0.934711852810161	-422	3.23710698952231	-115	2.63828302843257	227	-2.29989217040894	130	0.239085239085239	-506	-0.698744769874477	-42	-0.54739336492891	1.69417850853985	0.77739499855463	-0.446991168003064	-0.442556111639533	0.662167133196372	0.582545748133216	-0.334955595105988	-0.331632158201828
52916	73516.845703125	1213	0.540253395104112	1960	9.7295372250851	1977	0.922308309422453	-355	0.362374873962976	76	1.59017079548369	261	-2.76291191878973	124	0.251559251559252	-506	-0.698744769874477	-44	-0.542654028436019	1.69505655182632	0.776350358534461	-0.447230905910875	-0.444144838539809	0.661838085811438	0.581988574080931	-0.335265224463008	-0.332951763885499
56128	73614.8681640625	1210	0.611925807609562	1954	9.7649650792733	1985	0.825206043128724	-282	1.59729621166746	-4	0.486917736821211	260	-2.77230109875876	126	0.247401247401247	-491	-0.667364016736402	-47	-0.535545023696683	1.70230541198444	0.775478830162567	-0.451996047989297	-0.440831210977346	0.659116702181901	0.58319162084732	-0.339919411840297	-0.331523000306882
59340	73712.890625	1217	0.539410190251106	1960	9.6813528860493	1980	0.88617216315773	-652	-2.33536510426841	248	6.09511997994562	217	-2.03535026068254	131	0.237006237006237	-501	-0.688284518828452	-48	-0.533175355450237	1.69308422353546	0.775152768184822	-0.449151735512795	-0.444298215685425	0.662577038677646	0.580584594333419	-0.336411851779224	-0.332776595664921
62552	73810.9130859375	1212	0.563622215315973	1958	9.74135172965407	1984	0.837737271822744	-758	0.770239474265068	41	7.7281718294998	95	-0.229734244476116	130	0.239085239085239	-509	-0.705020920502092	-49	-0.530805687203792	1.69452671238089	0.779443686165665	-0.447888540621155	-0.43802214016729	0.662036658810932	0.584170793837075	-0.33567967637572	-0.328285090868457
228	73908.935546875	1214	0.467255946401081	1966	9.71821900680105	1982	0.862797320054062	-652	1.89386865364299	-31	6.12524530450901	132	-0.818648959110827	126	0.247401247401247	-505	-0.696652719665272	-48	-0.533175355450237	1.6966242374734	0.782381396417136	-0.442969286393702	-0.437787119331105	0.661250277275182	0.586915423704632	-0.332300215217904	-0.328412732985861
3440	74006.9580078125	1213	0.490745224449086	1964	9.73003230679165	1988	0.790273270647075	-563	1.98165533928145	-35	4.76805171391421	146	-1.03473414781441	125	0.249480249480249	-494	-0.673640167364017	-46	-0.537914691943128	1.69906418935999	0.78272313387802	-0.444947650663748	-0.435162135141584	0.660334601723704	0.587802776331989	-0.334143010551808	-0.326794367151849
6652	74104.98046875	1218	0.549649106323314	1959	9.66920230411749	1994	0.717395075201827	-612	-6.99159629684406	556	5.43184637646616	188	-1.49825748006434	131	0.237006237006237	-495	-0.675732217573222	-50	-0.528436018957346	1.68934453868918	0.780478138721937	-0.447266348065706	-0.43681424984209	0.663976379900504	0.583605296524299	-0.334444998184918	-0.326629404665435
9864	74203.0029296875	1212	0.61216672328185	1954	9.74086628457441	1981	0.873396405056338	-694	-2.83302990944435	280	6.72123470811817	147	-0.953749689624953	129	0.241164241164241	-509	-0.705020920502092	-48	-0.533175355450237	1.68173044663098	0.781130474411918	-0.447209148381996	-0.435705358640977	0.666818293497457	0.582114322079478	-0.333269356100997	-0.324696497934787
13076	74301.025390625	1217	0.465930910203502	1966	9.68208767884977	1990	0.766425028247363	-1007	-4.48980586168433	383	11.4824095184192	110	-0.354172039533	125	0.249480249480249	-506	-0.698744769874477	-48	-0.533175355450237	1.68191070020733	0.788253154825602	-0.437381443378827	-0.43284458746222	0.666751126473089	0.58746965864167	-0.325971834892065	-0.322590604914971
16288	74399.0478515625	1213	0.610721229248126	1954	9.72883254674366	1992	0.740880739514748	-764	0.647022487811658	49	7.82473976951413	135	-0.839639776149375	129	0.241164241164241	-485	-0.654811715481171	-53	-0.52132701421801	1.68283501779782	0.789991810919192	-0.442287070371178	-0.424611688561557	0.666406617368805	0.589008814080774	-0.329764156035328	-0.316585594518346
19500	74497.0703125	1209	0.514595876005522	1962	9.77798657136043	1994	0.717745607505005	-667	2.23794939198863	-54	6.3560173623634	119	-0.626510365671983	129	0.241164241164241	-502	-0.690376569037657	-55	-0.516587677725118	1.68995943556809	0.793086975329112	-0.439600592022362	-0.421621120269028	0.663746452861999	0.593195470376174	-0.328802625782799	-0.315354742340496
22712	74595.0927734375	1222	0.574824794077329	1957	9.62075777615561	1981	0.873769824348383	-671	1.81236894617458	-26	6.41005481376954	101	-0.342432314624655	129	0.241164241164241	-506	-0.698744769874477	-51	-0.5260663507109	1.67453775656845	0.789491711596651	-0.443522840953194	-0.424252668669271	0.669494044998834	0.58644819858113	-0.329456493698405	-0.315142273984307
25924	74693.115234375	1215	0.575667998930334	1957	9.70508669350467	1981	0.873761392299853	-589	-2.93728918003096	289	5.1118816819604	124	-0.599551828156882	126	0.247401247401247	-508	-0.702928870292887	-55	-0.516587677725118	1.67158833996545	0.790707194222481	-0.438972986444946	-0.426714014506691	0.670588755625941	0.586569769985378	-0.325643026356931	-0.316548961698584
29136	74791.1376953125	1217	0.550251395504032	1959	9.68124447399677	1990	0.765581823394357	-589	-4.86241601972584	416	5.09775671703813	160	-1.11218217562508	130	0.239085239085239	-499	-0.684100418410042	-57	-0.511848341232228	1.67201201109286	0.791524187648309	-0.437731846105076	-0.42647425628416	0.670431594751581	0.587288266086909	-0.324784486591451	-0.316431677530889
32348	74889.16015625	1211	0.538687443234245	1960	9.75364927014597	1992	0.741601077374887	-665	-2.68766612733916	271	6.27536215834673	120	-0.543307302070486	129	0.241164241164241	-509	-0.705020920502092	-55	-0.516587677725118	1.67485052042527	0.793861796765585	-0.436452125330422	-0.423430029557039	0.669377873591922	0.5897774815389	-0.324249934104948	-0.314575531229189
35560	74987.1826171875	1218	0.526400743947596	1961	9.66943478774125	1987	0.801964908223175	-503	-2.39557159101828	255	3.7991981076149	99	-0.227655010310682	121	0.257796257796258	-504	-0.694560669456067	-53	-0.52132701421801	1.67491800385677	0.793957239630271	-0.435843326900306	-0.423877925864455	0.669352805744201	0.589866320102416	-0.323807488045073	-0.314917856808945
38772	75085.205078125	1212	0.682875473098151	1948	9.74015919707625	1994	0.716062811534079	-276	8.82971759357874	-481	0.448626082130452	127	-0.880819703984251	122	0.255717255717256	-489	-0.663179916317992	-55	-0.516587677725118	1.6928968400119	0.794537051178236	-0.444333071054576	-0.413858667025594	0.662647210315337	0.595053975644581	-0.33277511734576	-0.309951870467651
41984	75183.2275390625	1212	0.598916361306052	1955	9.74099878819417	1991	0.753046980965253	-633	-0.965189864502664	158	5.80952354654012	157	-1.14419895837437	129	0.241164241164241	-507	-0.700836820083682	-56	-0.514218009478673	1.68130113535253	0.792441661293745	-0.442808389159346	-0.419472220696573	0.666978243883362	0.590430207899083	-0.329926431232768	-0.312539184360173
45196	75281.25	1211	0.635053712149137	1952	9.75268560745682	1992	0.740637414685738	-574	1.02328148784555	28	4.9305283972921	173	-1.42891633398226	129	0.241164241164241	-509	-0.705020920502092	-57	-0.511848341232228	1.68325356863601	0.793502140291963	-0.442336653892333	-0.417962483932957	0.666250569429831	0.591736726168599	-0.329862807102592	-0.311686307251525
48408	75379.2724609375	1215	0.598554987797621	1955	9.704857823616	1991	0.753050594700337	-660	-2.76211900183609	276	6.20783001903301	183	-1.50630079203921	129	0.241164241164241	-507	-0.700836820083682	-51	-0.5260663507109	1.6760706106557	0.792284009123111	-0.441755620605023	-0.420877678847051	0.668924533059332	0.588928728398596	-0.328370348145475	-0.312851140955226
51620	75477.294921875	1207	0.659265737214003	1950	9.80063625829051	1995	0.704250716121836	-301	-0.0148620333846217	102	0.743101669231083	144	-0.964185306790973	124	0.251559251559252	-495	-0.675732217573222	-54	-0.518957345971564	1.68449914650244	0.791543798130252	-0.444818666782276	-0.419040295584534	0.665786009136032	0.590604659207108	-0.331898219308233	-0.312663874762651
54832	75575.3173828125	1208	0.548926359306452	1959	9.7896914592985	2010	0.524631218334646	-665	-1.96024772354393	223	6.29013026452227	168	-1.29269951582918	131	0.237006237006237	-501	-0.688284518828452	-56	-0.514218009478673	1.69232848845997	0.794512711882402	-0.441509628324859	-0.41691581734652	0.662860011799986	0.594886109824015	-0.330577398342365	-0.312162945911532
58044	75673.33984375	1212	0.598073156453047	1955	9.7410072202427	1998	0.668718063616192	-658	-2.09449329694068	232	6.18009237887145	157	-1.12161288972561	129	0.241164241164241	-509	-0.705020920502092	-55	-0.516587677725118	1.68507797231858	0.793432923345169	-0.442439669767133	-0.417984849926753	0.665570037915457	0.592167075738855	-0.33020838652909	-0.311956888858003
61256	75771.3623046875	1212	0.57386113138818	1957	9.74124934049335	1999	0.656911991095757	-547	-0.908681143358707	156	4.5001578350063	186	-1.58929728956393	123	0.253638253638254	-509	-0.705020920502092	-53	-0.52132701421801	1.68890534841424	0.794744219974627	-0.439898417452927	-0.418175808888237	0.664140566932973	0.594156916590729	-0.328871454183482	-0.312631464258779
64468	75869.384765625	1213	0.586629662019403	1956	9.72907346241595	1992	0.741121655187035	-499	-0.378671550156149	122	3.77287405116705	192	-1.69175296213833	127	0.245322245322245	-490	-0.665271966527197	-56	-0.514218009478673	1.68384159133893	0.7918021622789	-0.44246206285988	-0.421042347917926	0.666031288153693	0.590624081871923	-0.330042985595845	-0.314065510319522
2144	75967.4072265625	1212	0.622044265845626	1953	9.74076750914877	1999	0.656430159751182	-329	-1.31211601371652	187	1.17281099510432	242	-2.43854641212004	127	0.245322245322245	-503	-0.692468619246862	-57	-0.511848341232228	1.69032091160744	0.791056554909311	-0.443546243953627	-0.42130304581102	0.663611257637209	0.59177169070802	-0.331807010589427	-0.315167372260265
5356	76065.4296875	1218	0.610118940067408	1954	9.66859760578005	1992	0.740886762406555	-472	-7.10051588402535	566	3.29747400721033	230	-2.13906745329316	129	0.241164241164241	-511	-0.709205020920502	-54	-0.518957345971564	1.67859060209536	0.787386821795347	-0.444138842060247	-0.427507522549493	0.667987409293154	0.585951678508009	-0.330515945647165	-0.318139373785181
8568	76163.4521484375	1212	0.537482864872809	1960	9.7416131231585	2001	0.633179388218742	-787	-2.69486159159219	269	8.15120571666222	194	-1.67604765487973	126	0.247401247401247	-508	-0.702928870292887	-55	-0.516587677725118	1.68608930637732	0.793246394595733	-0.437635203330427	-0.423362240010616	0.665192555635647	0.592294759515874	-0.326769890513499	-0.316112670468529
11780	76261.474609375	1219	0.452439632555417	1967	9.65812620608408	2000	0.646078013313	-353	-1.78968247065747	218	1.55204348435914	355	-4.15893996969279	131	0.237006237006237	-495	-0.675732217573222	-57	-0.511848341232228	1.69360278784961	0.791519714096807	-0.436987847107815	-0.427244852135384	0.662382815687831	0.592979293587163	-0.327376236206386	-0.320077120122123
14992	76359.4970703125	1211	0.561092600756957	1958	9.75342521857074	2006	0.572702327004479	-374	2.94840659269605	-95	1.91259941310531	298	-3.38107468421155	122	0.255717255717256	-508	-0.702928870292887	-57	-0.511848341232228	1.70699447007296	0.793080428319569	-0.439463011049399	-0.421776832146865	0.657351711077439	0.597652659869536	-0.331172259570774	-0.317844239502967
18204	76457.51953125	1215	0.548324070125734	1959	9.70536013279272	2008	0.548733626768622	-519	-9.60080423687238	730	3.99412330511089	255	-2.47179285586268	128	0.243243243243243	-512	-0.711297071129707	-55	-0.516587677725118	1.69313572964779	0.788827158504274	-0.44251976203913	-0.426530156273745	0.662557749579299	0.590840087358689	-0.331452095737813	-0.319475707798579
21416	76555.5419921875	1215	0.549408190651026	1959	9.70534929158747	1999	0.657156520503128	-479	-4.14668828153336	371	3.42295258485492	154	-1.03464124967858	125	0.249480249480249	-504	-0.694560669456067	-55	-0.516587677725118	1.6923769338416	0.788472478424831	-0.442694371735958	-0.427004501147131	0.662841875026851	0.590376184928336	-0.331471575008991	-0.319723636820006
24628	76653.564453125	1214	0.500502309176719	1963	9.71788654317329	2006	0.573308229920281	-415	-4.85488145721512	419	2.44692307300582	215	-1.95434144005349	123	0.253638253638254	-495	-0.675732217573222	-54	-0.518957345971564	1.69827204931474	0.788852228678851	-0.441077435434182	-0.427975299823734	0.660631987226358	0.592199190050828	-0.331121204349362	-0.321285301230424
27840	76751.5869140625	1210	0.585786457166398	1956	9.76522647277773	2002	0.620648159524722	-412	-0.624942100305927	140	2.44176844767963	199	-1.79399227863075	132	0.234927234927235	-510	-0.707112970711297	-55	-0.516587677725118	1.69981801986292	0.786969689003545	-0.446540092492699	-0.425770659376941	0.660051502208382	0.591187645306045	-0.335450004624401	-0.319847583807414
31052	76849.609375	1209	0.54952864848717	1959	9.77763724363561	2004	0.596914352069345	-569	-0.187578969089396	108	4.83073741747768	101	-0.302433356319376	130	0.239085239085239	-512	-0.711297071129707	-56	-0.514218009478673	1.70313634888313	0.788471885204498	-0.446135010617991	-0.423409539976309	0.658804196132501	0.593178792385278	-0.335633814984458	-0.318537115045533
34264	76947.6318359375	1218	0.586027372838685	1956	9.66883852145234	1992	0.741127678078842	-653	-4.21479206476248	372	6.07010657347888	79	0.114914334865366	126	0.247401247401247	-499	-0.684100418410042	-57	-0.511848341232228	1.68674730037479	0.786555599502346	-0.445868320604436	-0.427237322307972	0.664946866839771	0.587471034148252	-0.333014886125225	-0.319099567432735
37476	77045.654296875	1212	0.574824794077329	1957	9.74123970386646	1991	0.75328789663754	-753	-2.60833082772505	264	7.61484338746546	79	0.0827851101246174	131	0.237006237006237	-496	-0.677824267782427	-59	-0.507109004739337	1.68331749556509	0.788915686193126	-0.443067650788422	-0.425797013732199	0.666226733040535	0.588333279338152	-0.330417367177551	-0.317537802588618
40688	77143.6767578125	1218	0.54952864848717	1959	9.66920350869585	1995	0.705348087009104	-489	-8.84860386413177	681	3.5278281368493	154	-0.940602938026611	121	0.257796257796258	-507	-0.700836820083682	-55	-0.516587677725118	1.68010654218718	0.789334302164707	-0.439160814888108	-0.429056101335208	0.667423156940927	0.587800422575057	-0.327033693913598	-0.31950892920984
43900	77241.69921875	1215	0.586991035527834	1956	9.7049734631387	1987	0.801359005307372	-247	-7.75918170797334	614	-0.154923091326995	185	-1.43697803148658	128	0.243243243243243	-508	-0.702928870292887	-52	-0.523696682464455	1.67441762358758	0.784443261892232	-0.443522863896243	-0.433516133578845	0.669538662226668	0.582666575406069	-0.329438674248207	-0.322005903048177
47112	77339.7216796875	1216	0.658542990197141	1950	9.69220975082092	1992	0.740402521905258	-457	-2.88187398719896	288	3.09915721319244	151	-1.01400979521009	126	0.247401247401247	-498	-0.682008368200837	-52	-0.523696682464455	1.6806173569667	0.78579403891571	-0.445612713142571	-0.428902131365948	0.667232938737318	0.585297995169523	-0.331914235420124	-0.319467373357553
50324	77437.744140625	1213	0.80514017678392	1938	9.72688835726831	1978	0.90761124883457	-887	9.97711201982255	-569	9.7859999791577	45	0.351590643865643	129	0.241164241164241	-504	-0.694560669456067	-53	-0.52132701421801	1.67989111205849	0.790057003039772	-0.45105057398833	-0.415166607102031	0.667503366180306	0.588281800687015	-0.335855315307431	-0.309135870287079
53536	77535.7666015625	1212	0.733829137786901	1944	9.73964966042936	1971	0.992661708622131	-1944	-3.04771822727012	269	25.7940375005589	-45	1.98991945946273	118	0.264033264033264	-483	-0.650627615062761	-53	-0.52132701421801	1.64082294813261	0.8003901483185	-0.433530680891823	-0.41403714712591	0.681920301994737	0.585426552139122	-0.317095821699233	-0.302837734833021
56748	77633.7890625	1214	0.707448871671449	1946	9.71581707754835	1988	0.788106234174852	-1862	1.99463952848231	-62	24.5857919203355	-87	2.53206066932013	122	0.255717255717256	-508	-0.702928870292887	-55	-0.516587677725118	1.6392283293267	0.816012028615954	-0.42310691444829	-0.39383360458463	0.682503258397204	0.596408952519138	-0.30924146066537	-0.287846109297613
59960	77731.8115234375	1216	0.502791008063448	1963	9.69376727064226	1985	0.826297391124185	-1119	-4.44840200547487	378	13.2023925721059	161	-1.13577170269516	122	0.255717255717256	-497	-0.679916317991632	-53	-0.52132701421801	1.63125726496066	0.818408382460415	-0.414639532131995	-0.397846425033439	0.685410786018501	0.595929476584022	-0.30192251771861	-0.289694505716367
63172	77829.833984375	1210	0.659988484230865	1950	9.76448445250709	1986	0.812677223591426	-340	-4.78659211710819	416	1.30656158615524	249	-2.47622161754761	124	0.251559251559252	-508	-0.702928870292887	-58	-0.509478672985782	1.63164960242935	0.814360359422639	-0.420813236848369	-0.399666641958307	0.68526793127001	0.593091366197403	-0.306474516678706	-0.291073640753628
